timestamp,AccX,AccY,AccZ,GyroX,GyroY,GyroZ,MagX,MagY,MagZ,Activity
2019-07-15_162933:440,-0.349792,-0.049805,-0.355377,-0.014955000000000001,-0.016857,0.016963,-39.0,7.18,-15.68,2b
2019-07-15_162933:460,-0.330475,-0.049805,-0.36044299999999996,-0.017458,-0.015392,0.019099,-37.560001,6.75,-16.5,2b
2019-07-15_162933:480,-0.32486,-0.056915,-0.368591,-0.019472,-0.016125,0.020411000000000002,-37.560001,6.75,-16.5,2b
2019-07-15_162933:500,-0.327911,-0.048798,-0.364532,-0.020845,-0.0182,0.016444,-37.560001,6.75,-16.5,2b
2019-07-15_162933:520,-0.337067,-0.042175,-0.36654699999999996,-0.023256,-0.019053999999999998,0.01324,-37.18,6.75,-15.68,2b
2019-07-15_162933:540,-0.326385,-0.030487,-0.364532,-0.025026,-0.017193,0.01324,-37.18,6.75,-15.68,2b
2019-07-15_162933:560,-0.309601,-0.021332,-0.36654699999999996,-0.028870999999999997,-0.016522,0.015773,-37.18,7.18,-17.25,2b
2019-07-15_162933:580,-0.302002,-0.037108999999999996,-0.36654699999999996,-0.034578,-0.017925,0.018703,-37.18,7.18,-17.25,2b
2019-07-15_162933:600,-0.322845,-0.046265,-0.374176,-0.038057,-0.019726,0.020625,-37.18,7.18,-17.25,2b
2019-07-15_162933:620,-0.324371,-0.053863999999999995,-0.384338,-0.03766,-0.019787,0.022394999999999998,-36.5,7.56,-18.059998999999998,2b
2019-07-15_162933:640,-0.330963,-0.056915,-0.385864,-0.033723,-0.01759,0.023738,-36.5,7.56,-18.059998999999998,2b
2019-07-15_162933:660,-0.318268,-0.051849,-0.384338,-0.031129,-0.015147999999999998,0.022883,-36.060001,7.18,-17.68,2b
2019-07-15_162933:680,-0.310638,-0.046265,-0.382324,-0.029817000000000003,-0.014537999999999999,0.022883,-36.060001,7.18,-17.68,2b
2019-07-15_162933:700,-0.300964,-0.042694,-0.394531,-0.028810000000000002,-0.014996,0.023280000000000002,-36.060001,7.18,-17.68,2b
2019-07-15_162933:720,-0.300964,-0.037598,-0.396057,-0.029419999999999998,-0.016247,0.023066999999999997,-38.560001,7.18,-19.25,2b
2019-07-15_162933:740,-0.290802,-0.034058,-0.39502,-0.029358999999999996,-0.016796000000000002,0.023402000000000003,-38.560001,7.18,-19.25,2b
2019-07-15_162933:760,-0.285217,-0.034546,-0.401642,-0.029542000000000002,-0.017803,0.023402000000000003,-35.0,8.18,-18.870001000000002,2b
2019-07-15_162933:780,-0.28775,-0.036072,-0.405212,-0.029756,-0.018444,0.021998,-35.0,8.18,-18.870001000000002,2b
2019-07-15_162933:800,-0.28674299999999997,-0.03302,-0.415375,-0.028901999999999997,-0.017651,0.020411000000000002,-35.0,8.18,-18.870001000000002,2b
2019-07-15_162933:820,-0.284698,-0.027954000000000003,-0.421967,-0.028138999999999997,-0.016918,0.019893,-34.5,8.5,-22.5,2b
2019-07-15_162933:840,-0.286224,-0.026427999999999997,-0.42858900000000005,-0.028169,-0.015606,0.01974,-34.5,8.5,-22.5,2b
2019-07-15_162933:860,-0.281647,-0.026917,-0.425018,-0.027375999999999998,-0.014019,0.018886,-33.869999,7.87,-22.5,2b
2019-07-15_162933:880,-0.274017,-0.030487,-0.420959,-0.026094,-0.012859,0.018092,-33.869999,7.87,-22.5,2b
2019-07-15_162933:900,-0.263855,-0.029480000000000003,-0.421967,-0.02411,-0.012005,0.016963,-33.869999,7.87,-22.5,2b
2019-07-15_162933:920,-0.267426,-0.029968,-0.42758199999999996,-0.021699,-0.012095999999999999,0.016687999999999998,-33.869999,7.87,-22.059998999999998,2b
2019-07-15_162933:940,-0.268951,-0.029480000000000003,-0.429596,-0.01938,-0.011608,0.015712,-33.869999,7.87,-22.059998999999998,2b
2019-07-15_162933:960,-0.2659,-0.027435,-0.42758199999999996,-0.017152,-0.010693000000000001,0.014430000000000002,-33.18,9.37,-22.5,2b
2019-07-15_162933:980,-0.260284,-0.023375999999999997,-0.425537,-0.015290999999999999,-0.010235,0.013392,-33.18,9.37,-22.5,2b
2019-07-15_162934:000,-0.260284,-0.022369,-0.427063,-0.014009,-0.010143000000000001,0.01266,-33.18,9.37,-22.5,2b
2019-07-15_162934:020,-0.269958,-0.021851,-0.432159,-0.012697,-0.009899,0.011134,-32.75,8.56,-22.870001000000002,2b
2019-07-15_162934:040,-0.263336,-0.018799,-0.43670699999999996,-0.010957,-0.008099,0.010646,-32.75,8.56,-22.870001000000002,2b
2019-07-15_162934:060,-0.256226,-0.016753999999999998,-0.43621800000000005,-0.010042,-0.007427,0.010859,-32.75,8.25,-24.059998999999998,2b
2019-07-15_162934:080,-0.248596,-0.015228,-0.43518100000000004,-0.009553,-0.007427,0.010402,-32.75,8.25,-24.059998999999998,2b
2019-07-15_162934:100,-0.24453699999999998,-0.015747,-0.432159,-0.009096,-0.008282,0.009608,-32.75,8.25,-24.059998999999998,2b
2019-07-15_162934:120,-0.24758899999999998,-0.016266,-0.435699,-0.008058,-0.009228,0.00854,-32.75,8.25,-23.68,2b
2019-07-15_162934:140,-0.256226,-0.017792,-0.43823199999999995,-0.007234,-0.009289,0.00735,-32.75,8.25,-23.68,2b
2019-07-15_162934:160,-0.25521900000000003,-0.017792,-0.43774399999999997,-0.006593000000000001,-0.007824,0.006465,-32.5,8.25,-24.5,2b
2019-07-15_162934:180,-0.243011,-0.015747,-0.437225,-0.005861,-0.006695,0.006282,-32.5,8.25,-24.5,2b
2019-07-15_162934:200,-0.240479,-0.019806,-0.44027700000000003,-0.005403,-0.006756,0.0065260000000000006,-32.5,8.25,-24.5,2b
2019-07-15_162934:220,-0.240479,-0.020844,-0.43670699999999996,-0.004671,-0.007885,0.005092,-31.25,8.56,-24.870001000000002,2b
2019-07-15_162934:240,-0.24658200000000002,-0.022369,-0.434692,-0.0034799999999999996,-0.008495,0.0025280000000000003,-31.25,8.56,-24.870001000000002,2b
2019-07-15_162934:260,-0.252686,-0.021332,-0.44232200000000005,-0.001375,-0.008159999999999999,8.7e-05,-32.5,8.25,-24.18,2b
2019-07-15_162934:280,-0.25827,-0.019806,-0.44281000000000004,0.001097,-0.00642,-0.001256,-32.5,8.25,-24.18,2b
2019-07-15_162934:300,-0.24963400000000002,-0.012177,-0.44232200000000005,0.002959,-0.004497999999999999,-0.00033999999999999997,-32.5,8.25,-24.18,2b
2019-07-15_162934:320,-0.24096700000000001,-0.008636,-0.439758,0.0036,-0.003643,0.001918,-31.68,8.25,-23.75,2b
2019-07-15_162934:340,-0.24453699999999998,-0.009125,-0.434692,0.003264,-0.003246,0.003016,-31.68,8.25,-23.75,2b
2019-07-15_162934:360,-0.23791500000000002,-0.010162000000000001,-0.433655,0.002409,-0.003582,0.0033520000000000004,-31.68,8.25,-25.0,2b
2019-07-15_162934:380,-0.240479,-0.011169,-0.433655,0.001341,-0.004253,0.00323,-31.68,8.25,-25.0,2b
2019-07-15_162934:400,-0.25317399999999995,-0.016266,-0.433167,0.000273,-0.004497999999999999,0.0027719999999999997,-31.68,8.25,-25.0,2b
2019-07-15_162934:420,-0.252686,-0.017792,-0.433655,-0.000429,-0.0031850000000000003,0.002589,-31.0,9.0,-23.370001000000002,2b
2019-07-15_162934:440,-0.251648,-0.01828,-0.432648,-0.0005200000000000001,-0.002667,0.0028940000000000003,-31.0,9.0,-23.370001000000002,2b
2019-07-15_162934:460,-0.248108,-0.018799,-0.434692,-0.000459,-0.002575,0.002589,-31.68,9.0,-25.0,2b
2019-07-15_162934:480,-0.25317399999999995,-0.018799,-0.43670699999999996,-0.000978,-0.002667,0.00207,-31.68,9.0,-25.0,2b
2019-07-15_162934:500,-0.2547,-0.019318000000000002,-0.437225,-0.000825,-0.002392,0.0025280000000000003,-31.68,9.0,-25.0,2b
2019-07-15_162934:520,-0.25521900000000003,-0.019318000000000002,-0.43621800000000005,-0.001375,-0.001843,0.0031079999999999997,-31.25,9.37,-23.75,2b
2019-07-15_162934:540,-0.25116,-0.019806,-0.431641,-0.0017100000000000001,-0.000958,0.003474,-31.25,9.37,-23.75,2b
2019-07-15_162934:560,-0.250641,-0.020844,-0.42858900000000005,-0.002168,-0.0007740000000000001,0.00323,-32.060001,9.37,-25.370001000000002,2b
2019-07-15_162934:580,-0.241486,-0.018799,-0.425537,-0.0028399999999999996,-0.00108,0.003016,-32.060001,9.37,-25.370001000000002,2b
2019-07-15_162934:600,-0.245056,-0.020844,-0.431122,-0.0033280000000000002,-0.002392,0.00323,-32.060001,9.37,-25.370001000000002,2b
2019-07-15_162934:620,-0.246063,-0.020325,-0.432648,-0.003664,-0.002911,0.004024,-31.68,9.0,-24.559998999999998,2b
2019-07-15_162934:640,-0.251648,-0.021851,-0.43011499999999997,-0.003999,-0.0031850000000000003,0.004359,-31.68,9.0,-24.559998999999998,2b
2019-07-15_162934:660,-0.248108,-0.022369,-0.42858900000000005,-0.004121,-0.002605,0.00381,-31.0,9.37,-26.559998999999998,2b
2019-07-15_162934:680,-0.24706999999999998,-0.022369,-0.42858900000000005,-0.004335,-0.002728,0.003016,-31.0,9.37,-26.559998999999998,2b
2019-07-15_162934:700,-0.250641,-0.021851,-0.430634,-0.00406,-0.00285,0.0021920000000000004,-31.0,9.37,-26.559998999999998,2b
2019-07-15_162934:720,-0.248108,-0.020844,-0.433655,-0.0038770000000000002,-0.002392,0.002009,-30.559998999999998,9.37,-23.75,2b
2019-07-15_162934:740,-0.24353000000000002,-0.021332,-0.433167,-0.003664,-0.00227,0.002376,-30.559998999999998,9.37,-23.75,2b
2019-07-15_162934:760,-0.240479,-0.020844,-0.432159,-0.003023,-0.002972,0.002711,-31.25,8.25,-25.75,2b
2019-07-15_162934:780,-0.24453699999999998,-0.021332,-0.430634,-0.003114,-0.00346,0.002711,-31.25,8.25,-25.75,2b
2019-07-15_162934:800,-0.246063,-0.022369,-0.433167,-0.0029620000000000002,-0.003796,0.00207,-31.25,8.25,-25.75,2b
2019-07-15_162934:820,-0.246063,-0.021332,-0.433167,-0.0026260000000000003,-0.003918,0.001918,-31.25,9.0,-25.0,2b
2019-07-15_162934:840,-0.242493,-0.021851,-0.434174,-0.0025039999999999997,-0.003704,0.001521,-31.25,9.0,-25.0,2b
2019-07-15_162934:860,-0.238434,-0.020325,-0.437225,-0.002443,-0.003918,0.000545,-31.25,9.37,-25.75,2b
2019-07-15_162934:880,-0.239441,-0.022369,-0.43823199999999995,-0.002168,-0.004101,0.000667,-31.25,9.37,-25.75,2b
2019-07-15_162934:900,-0.241486,-0.024902,-0.439758,-0.001436,-0.003857,0.0010019999999999999,-31.25,9.37,-25.75,2b
2019-07-15_162934:920,-0.242004,-0.026917,-0.43927,-0.000642,-0.003307,-0.000279,-31.0,9.37,-25.0,2b
2019-07-15_162934:940,-0.236389,-0.024902,-0.43823199999999995,0.000212,-0.00227,-0.001775,-31.0,9.37,-25.0,2b
2019-07-15_162934:960,-0.233856,-0.021851,-0.43927,0.000884,-0.0024530000000000003,-0.002202,-30.559998999999998,8.25,-26.18,2b
2019-07-15_162934:980,-0.233337,-0.021851,-0.43927,0.00128,-0.002575,-0.002385,-30.559998999999998,8.25,-26.18,2b
2019-07-15_162935:000,-0.23791500000000002,-0.019806,-0.44281000000000004,0.00128,-0.00285,-0.0023239999999999997,-30.559998999999998,8.25,-26.18,2b
2019-07-15_162935:020,-0.244019,-0.020844,-0.440796,0.001097,-0.002392,-0.001317,-31.0,9.37,-24.18,2b
2019-07-15_162935:040,-0.245544,-0.022858,-0.44027700000000003,0.000884,-0.001385,-0.000401,-31.0,9.37,-24.18,2b
2019-07-15_162935:060,-0.243011,-0.026917,-0.438751,0.0008230000000000001,-0.000286,-0.000401,-31.0,9.37,-25.75,2b
2019-07-15_162935:080,-0.23690799999999998,-0.028961,-0.43774399999999997,0.0015550000000000002,0.000446,-0.000737,-31.0,9.37,-25.75,2b
2019-07-15_162935:100,-0.236389,-0.028442000000000002,-0.44232200000000005,0.002196,0.00011100000000000001,-0.0011949999999999999,-31.0,9.37,-25.75,2b
2019-07-15_162935:120,-0.23590100000000003,-0.027954000000000003,-0.43774399999999997,0.002867,-0.000164,-0.001775,-31.0,9.0,-25.75,2b
2019-07-15_162935:140,-0.23284899999999997,-0.023375999999999997,-0.43621800000000005,0.003203,-0.0005,-0.002904,-31.0,9.0,-25.75,2b
2019-07-15_162935:160,-0.236389,-0.020844,-0.43621800000000005,0.00302,-0.0011099999999999999,-0.003575,-31.25,9.75,-25.75,2b
2019-07-15_162935:180,-0.23284899999999997,-0.020844,-0.434174,0.002348,-0.001202,-0.003636,-31.25,9.75,-25.75,2b
2019-07-15_162935:200,-0.23690799999999998,-0.021851,-0.43774399999999997,0.00183,-0.001385,-0.003179,-31.25,9.75,-25.75,2b
2019-07-15_162935:220,-0.237427,-0.023895,-0.443329,0.002013,-0.001019,-0.002507,-31.0,8.56,-25.75,2b
2019-07-15_162935:240,-0.23895300000000003,-0.023375999999999997,-0.441803,0.002531,-0.0007440000000000001,-0.002202,-31.0,8.56,-25.75,2b
2019-07-15_162935:260,-0.238434,-0.021851,-0.43774399999999997,0.002745,-0.00037799999999999997,-0.001866,-30.25,9.75,-26.18,2b
2019-07-15_162935:280,-0.236389,-0.021851,-0.43670699999999996,0.002806,0.000233,-0.000737,-30.25,9.75,-26.18,2b
2019-07-15_162935:300,-0.23791500000000002,-0.021851,-0.435699,0.002287,5e-05,0.000789,-30.25,9.75,-26.18,2b
2019-07-15_162935:320,-0.23690799999999998,-0.023375999999999997,-0.43823199999999995,0.001402,0.000446,0.001918,-30.559998999999998,9.0,-26.18,2b
2019-07-15_162935:340,-0.235382,-0.026427999999999997,-0.443329,0.001158,0.000172,0.002833,-30.559998999999998,9.0,-26.18,2b
2019-07-15_162935:360,-0.234375,-0.027435,-0.43927,0.000212,1.9e-05,0.0027719999999999997,-31.25,9.37,-25.0,2b
2019-07-15_162935:380,-0.238434,-0.027435,-0.432159,-0.000368,-0.000225,0.002254,-31.25,9.37,-25.0,2b
2019-07-15_162935:400,-0.237427,-0.025908999999999998,-0.432648,-0.001314,-0.000683,0.002254,-31.25,9.37,-25.0,2b
2019-07-15_162935:420,-0.23690799999999998,-0.029480000000000003,-0.431641,-0.002168,-0.0005610000000000001,0.0017350000000000002,-31.68,9.0,-25.0,2b
2019-07-15_162935:440,-0.23590100000000003,-0.031006,-0.43621800000000005,-0.002779,-0.0005,0.000484,-31.68,9.0,-25.0,2b
2019-07-15_162935:460,-0.237427,-0.031494,-0.435699,-0.0029010000000000004,-0.00034700000000000003,-0.000188,-31.25,9.37,-26.559998999999998,2b
2019-07-15_162935:480,-0.245056,-0.035583,-0.429596,-0.0028399999999999996,-0.000286,-0.000127,-31.25,9.37,-26.559998999999998,2b
2019-07-15_162935:500,-0.251648,-0.038116000000000004,-0.42453,-0.002565,0.0007509999999999999,-0.000737,-31.25,9.37,-26.559998999999998,2b
2019-07-15_162935:520,-0.240479,-0.037108999999999996,-0.415375,-0.001375,0.0033450000000000003,-0.000981,-31.0,9.0,-25.0,2b
2019-07-15_162935:540,-0.23284899999999997,-0.035065,-0.40774499999999997,-0.0007030000000000001,0.004353,-0.001134,-31.0,9.0,-25.0,2b
2019-07-15_162935:560,-0.226227,-0.030487,-0.397583,-0.000124,0.003498,-0.0011949999999999999,-31.25,8.56,-25.0,2b
2019-07-15_162935:580,-0.22521999999999998,-0.029480000000000003,-0.401642,-9.300000000000001e-05,0.0016359999999999999,-0.001073,-31.25,8.56,-25.0,2b
2019-07-15_162935:600,-0.23995999999999998,-0.028442000000000002,-0.433655,-0.000124,-0.001995,-0.001042,-31.25,8.56,-25.0,2b
2019-07-15_162935:620,-0.24758899999999998,-0.031494,-0.432648,-0.0005200000000000001,-0.00346,0.000484,-31.25,9.0,-25.0,2b
2019-07-15_162935:640,-0.249115,-0.034546,-0.431641,-0.000368,-0.003704,0.000606,-31.25,9.0,-25.0,2b
2019-07-15_162935:660,-0.252686,-0.030487,-0.42147799999999996,-0.0005200000000000001,-0.0035210000000000003,-0.0011949999999999999,-31.25,9.75,-25.0,2b
2019-07-15_162935:680,-0.25216700000000003,-0.029480000000000003,-0.41943400000000003,-0.000459,-0.002605,-0.0021100000000000003,-31.25,9.75,-25.0,2b
2019-07-15_162935:700,-0.242493,-0.024902,-0.420959,-0.000429,-0.001843,-0.0021100000000000003,-31.25,9.75,-25.0,2b
2019-07-15_162935:720,-0.230804,-0.023895,-0.423492,-0.001375,-0.0024530000000000003,-0.002385,-31.25,9.0,-25.0,2b
2019-07-15_162935:740,-0.226746,-0.021851,-0.425018,-0.001955,-0.004833,-0.002568,-31.25,9.0,-25.0,2b
2019-07-15_162935:760,-0.228271,-0.022369,-0.426544,-0.002565,-0.008434,-0.001134,-34.560001,8.25,-26.18,2b
2019-07-15_162935:780,-0.23284899999999997,-0.022369,-0.434692,-0.002687,-0.011089,-0.00024900000000000004,-34.560001,8.25,-26.18,2b
2019-07-15_162935:800,-0.231812,-0.021851,-0.438751,-0.003084,-0.013287,-0.000188,-34.560001,8.25,-26.18,2b
2019-07-15_162935:820,-0.234375,-0.022858,-0.451477,-0.0033280000000000002,-0.014750999999999998,0.000453,-31.0,9.75,-25.370001000000002,2b
2019-07-15_162935:840,-0.23284899999999997,-0.022858,-0.45553599999999994,-0.0038469999999999997,-0.015788999999999997,0.001521,-31.0,9.75,-25.370001000000002,2b
2019-07-15_162935:860,-0.23791500000000002,-0.022858,-0.457581,-0.005189,-0.016186000000000002,0.001918,-30.559998999999998,8.25,-25.75,2b
2019-07-15_162935:880,-0.23895300000000003,-0.023375999999999997,-0.462128,-0.005861,-0.015331000000000001,0.0025280000000000003,-30.559998999999998,8.25,-25.75,2b
2019-07-15_162935:900,-0.22979699999999997,-0.026917,-0.46569799999999995,-0.006197,-0.014537999999999999,0.003078,-30.559998999999998,8.25,-25.75,2b
2019-07-15_162935:920,-0.227753,-0.026427999999999997,-0.467743,-0.006044,-0.014385,0.002711,-30.25,8.56,-26.559998999999998,2b
2019-07-15_162935:940,-0.220123,-0.025421,-0.46670500000000004,-0.0057079999999999995,-0.013622,0.002742,-30.25,8.56,-26.559998999999998,2b
2019-07-15_162935:960,-0.22116100000000002,-0.026427999999999997,-0.46670500000000004,-0.004915,-0.012737,0.0033520000000000004,-29.059998999999998,9.0,-26.559998999999998,2b
2019-07-15_162935:980,-0.21911599999999998,-0.025908999999999998,-0.46060200000000007,-0.0039380000000000005,-0.012005,0.003749,-29.059998999999998,9.0,-26.559998999999998,2b
2019-07-15_162936:000,-0.21810900000000003,-0.024902,-0.461639,-0.003542,-0.010967,0.003749,-29.059998999999998,9.0,-26.559998999999998,2b
2019-07-15_162936:020,-0.20639000000000002,-0.022858,-0.462128,-0.003206,-0.009899,0.004634,-29.5,8.25,-27.0,2b
2019-07-15_162936:040,-0.205902,-0.023375999999999997,-0.461121,-0.003389,-0.009106,0.0051530000000000005,-29.5,8.25,-27.0,2b
2019-07-15_162936:060,-0.20285,-0.021851,-0.462128,-0.0039380000000000005,-0.008495,0.004939,-29.5,8.25,-25.75,2b
2019-07-15_162936:080,-0.20486500000000002,-0.021851,-0.462128,-0.0039380000000000005,-0.007763,0.005549,-29.5,8.25,-25.75,2b
2019-07-15_162936:100,-0.203369,-0.025421,-0.461639,-0.0039380000000000005,-0.006847,0.005488,-29.5,8.25,-25.75,2b
2019-07-15_162936:120,-0.205902,-0.026427999999999997,-0.46469099999999997,-0.003999,-0.00642,0.005275,-28.75,8.56,-27.0,2b
2019-07-15_162936:140,-0.20486500000000002,-0.025421,-0.462128,-0.003786,-0.005169,0.005092,-28.75,8.56,-27.0,2b
2019-07-15_162936:160,-0.205902,-0.026427999999999997,-0.46569799999999995,-0.003542,-0.004192,0.004756,-28.370001000000002,7.87,-27.370001000000002,2b
2019-07-15_162936:180,-0.20538299999999998,-0.026917,-0.46469099999999997,-0.003999,-0.003704,0.004207,-28.370001000000002,7.87,-27.370001000000002,2b
2019-07-15_162936:200,-0.213013,-0.027435,-0.462646,-0.0036030000000000003,-0.002667,0.004481000000000001,-28.370001000000002,7.87,-27.370001000000002,2b
2019-07-15_162936:220,-0.20843499999999998,-0.026427999999999997,-0.461121,-0.003664,-0.0016589999999999999,0.004817,-28.370001000000002,8.56,-28.18,2b
2019-07-15_162936:240,-0.21249400000000002,-0.028442000000000002,-0.459595,-0.003145,-0.0005,0.004878,-28.370001000000002,8.56,-28.18,2b
2019-07-15_162936:260,-0.21048000000000003,-0.027954000000000003,-0.457581,-0.0029620000000000002,1.9e-05,0.004542,-28.75,8.56,-28.559998999999998,2b
2019-07-15_162936:280,-0.204376,-0.026917,-0.45654300000000003,-0.003114,0.00035499999999999996,0.004359,-28.75,8.56,-28.559998999999998,2b
2019-07-15_162936:300,-0.207916,-0.026427999999999997,-0.452484,-0.00345,0.000629,0.004603,-28.75,8.56,-28.559998999999998,2b
2019-07-15_162936:320,-0.20742800000000003,-0.026427999999999997,-0.453003,-0.0038770000000000002,0.0007509999999999999,0.004878,-28.75,8.56,-28.18,2b
2019-07-15_162936:340,-0.21249400000000002,-0.027435,-0.44995100000000005,-0.004182,0.0018809999999999999,0.004939,-28.75,8.56,-28.18,2b
2019-07-15_162936:360,-0.20843499999999998,-0.027954000000000003,-0.45095799999999997,-0.004274,0.0016359999999999999,0.004542,-29.059998999999998,9.0,-27.370001000000002,2b
2019-07-15_162936:380,-0.205902,-0.029968,-0.44891400000000004,-0.004243,0.001484,0.003901,-29.059998999999998,9.0,-27.370001000000002,2b
2019-07-15_162936:400,-0.210968,-0.032532,-0.44891400000000004,-0.00406,0.001484,0.0036880000000000003,-29.059998999999998,9.0,-27.370001000000002,2b
2019-07-15_162936:420,-0.20639000000000002,-0.032013,-0.45095799999999997,-0.0034799999999999996,0.00124,0.0034130000000000002,-28.75,9.0,-27.370001000000002,2b
2019-07-15_162936:440,-0.206909,-0.032532,-0.447388,-0.003084,0.000172,0.003505,-28.75,9.0,-27.370001000000002,2b
2019-07-15_162936:460,-0.20385699999999998,-0.031494,-0.449432,-0.002748,1.9e-05,0.003505,-28.370001000000002,9.37,-27.0,2b
2019-07-15_162936:480,-0.20639000000000002,-0.029480000000000003,-0.448425,-0.00229,-0.00108,0.0033520000000000004,-28.370001000000002,9.37,-27.0,2b
2019-07-15_162936:500,-0.20639000000000002,-0.027954000000000003,-0.45043900000000003,-0.002443,-0.001385,0.0031079999999999997,-28.370001000000002,9.37,-27.0,2b
2019-07-15_162936:520,-0.203369,-0.027435,-0.453003,-0.0028399999999999996,-0.00172,0.0027719999999999997,-28.370001000000002,9.37,-26.18,2b
2019-07-15_162936:540,-0.20233199999999998,-0.027435,-0.45196499999999995,-0.003389,-0.00227,0.002742,-28.370001000000002,9.37,-26.18,2b
2019-07-15_162936:560,-0.206909,-0.026917,-0.45196499999999995,-0.0033280000000000002,-0.002392,0.0028940000000000003,-28.75,9.37,-26.559998999999998,2b
2019-07-15_162936:580,-0.206909,-0.026917,-0.453003,-0.0038469999999999997,-0.0023309999999999997,0.002955,-28.75,9.37,-26.559998999999998,2b
2019-07-15_162936:600,-0.20486500000000002,-0.027954000000000003,-0.453491,-0.0039380000000000005,-0.002605,0.002589,-28.75,9.37,-26.559998999999998,2b
2019-07-15_162936:620,-0.19775399999999999,-0.026917,-0.45401,-0.003999,-0.0027890000000000002,0.0021920000000000004,-28.0,9.0,-26.559998999999998,2b
2019-07-15_162936:640,-0.20080599999999998,-0.026917,-0.455017,-0.004518,-0.003246,0.001796,-28.0,9.0,-26.559998999999998,2b
2019-07-15_162936:660,-0.201843,-0.028442000000000002,-0.45907600000000004,-0.004579,-0.00346,0.002376,-28.370001000000002,9.75,-26.559998999999998,2b
2019-07-15_162936:680,-0.203369,-0.029480000000000003,-0.461121,-0.004274,-0.003368,0.002711,-28.370001000000002,9.75,-26.559998999999998,2b
2019-07-15_162936:700,-0.20538299999999998,-0.029480000000000003,-0.459595,-0.003664,-0.002605,0.002742,-28.370001000000002,9.75,-26.559998999999998,2b
2019-07-15_162936:720,-0.20385699999999998,-0.028442000000000002,-0.460114,-0.003206,-0.001934,0.0028940000000000003,-28.75,9.37,-27.75,2b
2019-07-15_162936:740,-0.20538299999999998,-0.027435,-0.45806899999999995,-0.003084,-0.001202,0.003016,-28.75,9.37,-27.75,2b
2019-07-15_162936:760,-0.198792,-0.026917,-0.461121,-0.0029010000000000004,-0.001019,0.0031079999999999997,-28.370001000000002,9.0,-27.370001000000002,2b
2019-07-15_162936:780,-0.20080599999999998,-0.027954000000000003,-0.46060200000000007,-0.0029620000000000002,-0.001202,0.0031079999999999997,-28.370001000000002,9.0,-27.370001000000002,2b
2019-07-15_162936:800,-0.203369,-0.028961,-0.45806899999999995,-0.0029620000000000002,-0.0011099999999999999,0.0028940000000000003,-28.370001000000002,9.0,-27.370001000000002,2b
2019-07-15_162936:820,-0.20742800000000003,-0.029480000000000003,-0.45706199999999997,-0.002748,-0.000683,0.002955,-28.75,9.37,-27.0,2b
2019-07-15_162936:840,-0.20742800000000003,-0.028442000000000002,-0.45654300000000003,-0.0025039999999999997,-0.000225,0.002742,-28.75,9.37,-27.0,2b
2019-07-15_162936:860,-0.20486500000000002,-0.026917,-0.45907600000000004,-0.002565,0.000172,0.002589,-28.75,9.37,-27.0,2b
2019-07-15_162936:880,-0.201324,-0.026427999999999997,-0.45806899999999995,-0.002748,0.000294,0.00265,-29.059998999999998,8.56,-27.370001000000002,2b
2019-07-15_162936:900,-0.201324,-0.026917,-0.45553599999999994,-0.0029010000000000004,-0.000225,0.002711,-29.059998999999998,8.56,-27.370001000000002,2b
2019-07-15_162936:920,-0.204376,-0.028442000000000002,-0.455017,-0.003114,-0.000225,0.00265,-27.68,9.37,-27.75,2b
2019-07-15_162936:940,-0.20639000000000002,-0.03302,-0.45401,-0.0026260000000000003,0.000172,0.0027719999999999997,-27.68,9.37,-27.75,2b
2019-07-15_162936:960,-0.20080599999999998,-0.032013,-0.45553599999999994,-0.002107,0.00011100000000000001,0.002254,-27.68,9.37,-27.75,2b
2019-07-15_162936:980,-0.20080599999999998,-0.031006,-0.455017,-0.001436,-0.000286,0.001796,-28.75,9.0,-27.370001000000002,2b
2019-07-15_162937:000,-0.201843,-0.027954000000000003,-0.451477,-0.001253,-0.00108,0.001857,-28.75,9.0,-27.370001000000002,2b
2019-07-15_162937:020,-0.20742800000000003,-0.027954000000000003,-0.453003,-0.0011,-0.000958,0.002009,-35.369999,9.75,-27.0,2b
2019-07-15_162937:040,-0.20385699999999998,-0.027435,-0.453491,-0.001253,-0.0006219999999999999,0.0017350000000000002,-35.369999,9.75,-27.0,2b
2019-07-15_162937:060,-0.20385699999999998,-0.026917,-0.455017,-0.001497,-0.000897,0.001277,-35.369999,9.75,-27.0,2b
2019-07-15_162937:080,-0.203369,-0.025908999999999998,-0.455017,-0.0019850000000000002,-0.0011099999999999999,0.001399,-28.75,9.0,-27.370001000000002,2b
2019-07-15_162937:100,-0.20233199999999998,-0.025908999999999998,-0.455017,-0.002382,-0.001537,0.0016129999999999999,-28.75,9.0,-27.370001000000002,2b
2019-07-15_162937:120,-0.20538299999999998,-0.027435,-0.45401,-0.0026260000000000003,-0.001141,0.001674,-28.370001000000002,9.75,-26.559998999999998,2b
2019-07-15_162937:140,-0.204376,-0.026427999999999997,-0.45401,-0.0026260000000000003,-0.0011099999999999999,0.002009,-28.370001000000002,9.75,-26.559998999999998,2b
2019-07-15_162937:160,-0.201324,-0.027435,-0.453491,-0.003114,-0.001446,0.002315,-29.059998999999998,9.0,-27.370001000000002,2b
2019-07-15_162937:180,-0.201324,-0.029480000000000003,-0.45401,-0.0033280000000000002,-0.001141,0.0025280000000000003,-29.059998999999998,9.0,-27.370001000000002,2b
2019-07-15_162937:200,-0.20486500000000002,-0.031006,-0.453491,-0.003389,-0.0016589999999999999,0.0024059999999999997,-29.059998999999998,9.0,-27.370001000000002,2b
2019-07-15_162937:220,-0.20538299999999998,-0.028961,-0.45553599999999994,-0.0033280000000000002,-0.001537,0.002467,-28.75,9.0,-27.370001000000002,2b
2019-07-15_162937:240,-0.20080599999999998,-0.027954000000000003,-0.454529,-0.003389,-0.001263,0.002742,-28.75,9.0,-27.370001000000002,2b
2019-07-15_162937:260,-0.204376,-0.028442000000000002,-0.45654300000000003,-0.003664,-0.00172,0.0028940000000000003,-28.75,9.0,-27.370001000000002,2b
2019-07-15_162937:280,-0.204376,-0.027954000000000003,-0.455017,-0.0038770000000000002,-0.001324,0.002742,-28.0,9.0,-27.75,2b
2019-07-15_162937:300,-0.203369,-0.026917,-0.45605500000000004,-0.0038770000000000002,-0.001446,0.003016,-28.0,9.0,-27.75,2b
2019-07-15_162937:320,-0.201843,-0.028961,-0.45706199999999997,-0.0038469999999999997,-0.001446,0.003505,-29.059998999999998,9.37,-27.370001000000002,2b
2019-07-15_162937:340,-0.204376,-0.029968,-0.454529,-0.0038770000000000002,-0.0011099999999999999,0.0033520000000000004,-29.059998999999998,9.37,-27.370001000000002,2b
2019-07-15_162937:360,-0.20385699999999998,-0.027954000000000003,-0.455017,-0.00406,-0.001324,0.003474,-28.370001000000002,9.37,-26.559998999999998,2b
2019-07-15_162937:380,-0.201843,-0.029480000000000003,-0.454529,-0.003999,-0.001385,0.0036880000000000003,-28.370001000000002,9.37,-26.559998999999998,2b
2019-07-15_162937:400,-0.19574,-0.028442000000000002,-0.45401,-0.004518,-0.00172,0.002376,-28.370001000000002,9.37,-26.559998999999998,2b
2019-07-15_162937:420,-0.19775399999999999,-0.028442000000000002,-0.45654300000000003,-0.004854,-0.0021780000000000002,0.00207,-28.75,9.37,-29.370001000000002,2b
2019-07-15_162937:440,-0.196747,-0.034058,-0.45654300000000003,-0.004671,-0.002392,0.00265,-28.75,9.37,-29.370001000000002,2b
2019-07-15_162937:460,-0.20538299999999998,-0.037108999999999996,-0.45907600000000004,-0.004274,-0.002728,0.001582,-28.75,9.37,-29.370001000000002,2b
2019-07-15_162937:480,-0.20233199999999998,-0.035065,-0.459595,-0.003389,-0.002117,0.000545,-29.059998999999998,9.37,-27.75,2b
2019-07-15_162937:500,-0.20285,-0.035065,-0.460114,-0.002382,-0.001934,0.000728,-29.059998999999998,9.37,-27.75,2b
2019-07-15_162937:520,-0.201843,-0.031494,-0.45907600000000004,-0.001558,-0.001324,0.000728,-28.370001000000002,8.56,-27.75,2b
2019-07-15_162937:540,-0.20080599999999998,-0.027435,-0.45654300000000003,-0.001161,-0.001019,0.000789,-28.370001000000002,8.56,-27.75,2b
2019-07-15_162937:560,-0.199799,-0.025908999999999998,-0.45654300000000003,-0.0008560000000000001,-0.001141,0.0010019999999999999,-28.370001000000002,8.56,-27.75,2b
2019-07-15_162937:580,-0.20285,-0.024384,-0.45706199999999997,-0.001253,-0.001202,0.000941,-29.059998999999998,9.0,-27.0,2b
2019-07-15_162937:600,-0.20233199999999998,-0.025421,-0.45654300000000003,-0.0016489999999999999,-0.0008349999999999999,0.001277,-29.059998999999998,9.0,-27.0,2b
2019-07-15_162937:620,-0.201843,-0.024384,-0.45553599999999994,-0.0019850000000000002,-0.0008349999999999999,0.001796,-28.370001000000002,9.75,-28.18,2b
2019-07-15_162937:640,-0.20385699999999998,-0.023895,-0.45605500000000004,-0.0029010000000000004,-0.001141,0.002009,-28.370001000000002,9.75,-28.18,2b
2019-07-15_162937:660,-0.201843,-0.024384,-0.45605500000000004,-0.0032670000000000004,-0.00108,0.002467,-28.370001000000002,9.75,-28.18,2b
2019-07-15_162937:680,-0.20233199999999998,-0.025908999999999998,-0.45605500000000004,-0.0038469999999999997,-0.001324,0.0027719999999999997,-28.75,8.56,-27.75,2b
2019-07-15_162937:700,-0.20080599999999998,-0.027435,-0.45654300000000003,-0.0038770000000000002,-0.000958,0.002955,-28.75,8.56,-27.75,2b
2019-07-15_162937:720,-0.20080599999999998,-0.028961,-0.45654300000000003,-0.0039380000000000005,-0.001385,0.0028940000000000003,-28.370001000000002,9.75,-27.370001000000002,2b
2019-07-15_162937:740,-0.19927999999999998,-0.031494,-0.45553599999999994,-0.003786,-0.001324,0.002742,-28.370001000000002,9.75,-27.370001000000002,2b
2019-07-15_162937:760,-0.198273,-0.031006,-0.45401,-0.0034799999999999996,-0.001446,0.0024059999999999997,-28.370001000000002,9.75,-27.370001000000002,2b
2019-07-15_162937:780,-0.200317,-0.029968,-0.45553599999999994,-0.003023,-0.0016589999999999999,0.002315,-23.25,9.0,-27.370001000000002,2b
2019-07-15_162937:800,-0.19775399999999999,-0.027954000000000003,-0.45605500000000004,-0.002382,-0.001873,0.002254,-23.25,9.0,-27.370001000000002,2b
2019-07-15_162937:820,-0.198792,-0.027954000000000003,-0.45806899999999995,-0.00229,-0.002239,0.002254,-28.370001000000002,9.0,-28.18,2b
2019-07-15_162937:840,-0.19775399999999999,-0.025908999999999998,-0.45605500000000004,-0.002382,-0.0023309999999999997,0.002254,-28.370001000000002,9.0,-28.18,2b
2019-07-15_162937:860,-0.198792,-0.026427999999999997,-0.45806899999999995,-0.002779,-0.002667,0.0024059999999999997,-28.370001000000002,9.0,-28.18,2b
2019-07-15_162937:880,-0.20080599999999998,-0.026917,-0.45806899999999995,-0.0029010000000000004,-0.0023309999999999997,0.002833,-28.370001000000002,9.37,-27.75,2b
2019-07-15_162937:900,-0.19927999999999998,-0.026917,-0.45907600000000004,-0.003206,-0.0023309999999999997,0.002955,-28.370001000000002,9.37,-27.75,2b
2019-07-15_162937:920,-0.200317,-0.027435,-0.459595,-0.003389,-0.00227,0.003078,-27.68,9.0,-27.370001000000002,2b
2019-07-15_162937:940,-0.198273,-0.028961,-0.458588,-0.003389,-0.001934,0.003078,-27.68,9.0,-27.370001000000002,2b
2019-07-15_162937:960,-0.196747,-0.027954000000000003,-0.458588,-0.00345,-0.001782,0.0031079999999999997,-27.68,9.0,-27.370001000000002,2b
2019-07-15_162937:980,-0.198273,-0.029480000000000003,-0.457581,-0.0036030000000000003,-0.001873,0.003078,-28.75,8.25,-27.370001000000002,2b
2019-07-15_162938:000,-0.197266,-0.027954000000000003,-0.45907600000000004,-0.0036030000000000003,-0.001782,0.002711,-28.75,8.25,-27.370001000000002,2b
2019-07-15_162938:020,-0.197266,-0.028961,-0.45907600000000004,-0.003389,-0.001782,0.0027719999999999997,-28.75,9.37,-27.0,2b
2019-07-15_162938:040,-0.19622799999999999,-0.029480000000000003,-0.45907600000000004,-0.00345,-0.001934,0.0027719999999999997,-28.75,9.37,-27.0,2b
2019-07-15_162938:060,-0.19927999999999998,-0.027954000000000003,-0.458588,-0.003145,-0.001873,0.002742,-28.75,9.37,-27.0,2b
2019-07-15_162938:080,-0.196747,-0.028961,-0.459595,-0.0029010000000000004,-0.001782,0.0031079999999999997,-28.0,9.0,-26.18,2b
2019-07-15_162938:100,-0.20080599999999998,-0.028961,-0.459595,-0.002687,-0.001537,0.003078,-28.0,9.0,-26.18,2b
2019-07-15_162938:120,-0.199799,-0.026917,-0.458588,-0.002565,-0.001446,0.00323,-28.0,9.0,-28.18,2b
2019-07-15_162938:140,-0.196747,-0.028442000000000002,-0.45806899999999995,-0.002779,-0.001385,0.003901,-28.0,9.0,-28.18,2b
2019-07-15_162938:160,-0.194702,-0.028442000000000002,-0.45706199999999997,-0.003145,-0.001537,0.00323,-28.0,9.0,-28.18,2b
2019-07-15_162938:180,-0.19775399999999999,-0.028961,-0.45907600000000004,-0.0033280000000000002,-0.0016589999999999999,0.0025280000000000003,-28.0,9.0,-28.18,2b
2019-07-15_162938:200,-0.195221,-0.029480000000000003,-0.45806899999999995,-0.0032670000000000004,-0.001446,0.003016,-28.0,9.0,-28.18,2b
2019-07-15_162938:220,-0.19927999999999998,-0.032013,-0.45907600000000004,-0.003206,-0.0016589999999999999,0.003016,-28.370001000000002,9.0,-29.0,2b
2019-07-15_162938:240,-0.196747,-0.032013,-0.45907600000000004,-0.002779,-0.001324,0.00265,-28.370001000000002,9.0,-29.0,2b
2019-07-15_162938:260,-0.197266,-0.031006,-0.459595,-0.001894,-0.0007440000000000001,0.002742,-28.370001000000002,9.0,-29.0,2b
2019-07-15_162938:280,-0.19574,-0.028442000000000002,-0.457581,-0.0018329999999999998,-0.001141,0.003078,-27.68,9.37,-27.0,2b
2019-07-15_162938:300,-0.192169,-0.026917,-0.45654300000000003,-0.001314,-0.0007740000000000001,0.0031079999999999997,-27.68,9.37,-27.0,2b
2019-07-15_162938:320,-0.195221,-0.025908999999999998,-0.45605500000000004,-0.001771,-0.001324,0.0034130000000000002,-28.370001000000002,8.56,-28.18,2b
2019-07-15_162938:340,-0.196747,-0.026917,-0.45553599999999994,-0.0023510000000000002,-0.001598,0.003474,-28.370001000000002,8.56,-28.18,2b
2019-07-15_162938:360,-0.19775399999999999,-0.027435,-0.457581,-0.0029620000000000002,-0.001446,0.003505,-28.370001000000002,8.56,-28.18,2b
2019-07-15_162938:380,-0.19574,-0.029968,-0.45654300000000003,-0.00345,-0.001537,0.0036880000000000003,-28.75,9.0,-28.18,2b
2019-07-15_162938:400,-0.196747,-0.032532,-0.457581,-0.003786,-0.001934,0.0036270000000000004,-28.75,9.0,-28.18,2b
2019-07-15_162938:420,-0.196747,-0.032532,-0.457581,-0.0036030000000000003,-0.00172,0.003474,-28.75,9.37,-29.0,2b
2019-07-15_162938:440,-0.195221,-0.032532,-0.45706199999999997,-0.003206,-0.00172,0.003474,-28.75,9.37,-29.0,2b
2019-07-15_162938:460,-0.196747,-0.03302,-0.45806899999999995,-0.003084,-0.001843,0.0034130000000000002,-28.75,9.37,-29.0,2b
2019-07-15_162938:480,-0.195221,-0.032532,-0.458588,-0.0029010000000000004,-0.00172,0.00323,-28.0,10.06,-28.559998999999998,2b
2019-07-15_162938:500,-0.194214,-0.031006,-0.45806899999999995,-0.002748,-0.001598,0.0033520000000000004,-28.0,10.06,-28.559998999999998,2b
2019-07-15_162938:520,-0.192169,-0.029968,-0.45806899999999995,-0.0028399999999999996,-0.001873,0.003016,-27.68,9.75,-28.559998999999998,2b
2019-07-15_162938:540,-0.193176,-0.029968,-0.457581,-0.0029620000000000002,-0.001934,0.003016,-27.68,9.75,-28.559998999999998,2b
2019-07-15_162938:560,-0.192688,-0.030487,-0.45907600000000004,-0.00345,-0.0020559999999999997,0.003078,-27.68,9.75,-28.559998999999998,2b
2019-07-15_162938:580,-0.193176,-0.031494,-0.460114,-0.0034799999999999996,-0.001995,0.00323,-27.68,9.37,-27.370001000000002,2b
2019-07-15_162938:600,-0.193176,-0.030487,-0.461639,-0.00345,-0.0021780000000000002,0.003016,-27.68,9.37,-27.370001000000002,2b
2019-07-15_162938:620,-0.193176,-0.032013,-0.462128,-0.0034799999999999996,-0.001934,0.0033520000000000004,-28.370001000000002,9.37,-27.75,2b
2019-07-15_162938:640,-0.194214,-0.032532,-0.461639,-0.003145,-0.001995,0.0032909999999999997,-28.370001000000002,9.37,-27.75,2b
2019-07-15_162938:660,-0.195221,-0.032532,-0.462646,-0.003145,-0.0016589999999999999,0.0033520000000000004,-28.370001000000002,9.37,-27.75,2b
2019-07-15_162938:680,-0.19165,-0.032532,-0.461121,-0.0029620000000000002,-0.001385,0.0032909999999999997,-27.25,9.0,-28.18,2b
2019-07-15_162938:700,-0.192688,-0.031494,-0.460114,-0.003114,-0.001446,0.0032909999999999997,-27.25,9.0,-28.18,2b
2019-07-15_162938:720,-0.189636,-0.031006,-0.46060200000000007,-0.0033280000000000002,-0.001202,0.002955,-27.68,9.37,-29.0,2b
2019-07-15_162938:740,-0.192688,-0.032013,-0.459595,-0.0034799999999999996,-0.001385,0.003016,-27.68,9.37,-29.0,2b
2019-07-15_162938:760,-0.192169,-0.03302,-0.46060200000000007,-0.003542,-0.001537,0.002711,-27.68,9.37,-29.0,2b
2019-07-15_162938:780,-0.194702,-0.033539,-0.460114,-0.00345,-0.001202,0.002589,-27.25,9.37,-27.75,2b
2019-07-15_162938:800,-0.192169,-0.032532,-0.459595,-0.003206,-0.001446,0.002376,-27.25,9.37,-27.75,2b
2019-07-15_162938:820,-0.191162,-0.032013,-0.460114,-0.003206,-0.001263,0.0024059999999999997,-27.68,9.0,-29.0,2b
2019-07-15_162938:840,-0.192169,-0.031494,-0.45907600000000004,-0.003023,-0.001446,0.002315,-27.68,9.0,-29.0,2b
2019-07-15_162938:860,-0.193176,-0.031494,-0.458588,-0.0029620000000000002,-0.001598,0.002254,-27.68,9.0,-29.0,2b
2019-07-15_162938:880,-0.191162,-0.029480000000000003,-0.459595,-0.0029010000000000004,-0.001537,0.002376,-28.75,9.37,-27.370001000000002,2b
2019-07-15_162938:900,-0.192169,-0.030487,-0.45907600000000004,-0.003023,-0.001385,0.002711,-28.75,9.37,-27.370001000000002,2b
2019-07-15_162938:920,-0.19574,-0.031006,-0.460114,-0.003114,-0.001446,0.00265,-27.68,9.37,-29.0,2b
2019-07-15_162938:940,-0.193695,-0.028442000000000002,-0.45907600000000004,-0.0033280000000000002,-0.001324,0.0031079999999999997,-27.68,9.37,-29.0,2b
2019-07-15_162938:960,-0.19165,-0.029968,-0.459595,-0.0034799999999999996,-0.001385,0.003169,-27.68,9.37,-29.0,2b
2019-07-15_162938:980,-0.189117,-0.031006,-0.46060200000000007,-0.00406,-0.00172,0.002254,-28.0,9.75,-28.18,2b
2019-07-15_162939:000,-0.189636,-0.030487,-0.462128,-0.004182,-0.0014759999999999999,0.0025280000000000003,-28.0,9.75,-28.18,2b
2019-07-15_162939:020,-0.189636,-0.032532,-0.462128,-0.0038469999999999997,-0.00172,0.002955,-27.0,9.37,-28.559998999999998,2b
2019-07-15_162939:040,-0.19165,-0.033539,-0.461639,-0.003786,-0.001782,0.002009,-27.0,9.37,-28.559998999999998,2b
2019-07-15_162939:060,-0.189636,-0.03302,-0.461121,-0.003023,-0.001385,0.002254,-27.0,9.37,-28.559998999999998,2b
2019-07-15_162939:080,-0.189636,-0.032013,-0.46060200000000007,-0.002229,-0.001263,0.002711,-28.370001000000002,9.0,-27.75,2b
2019-07-15_162939:100,-0.191162,-0.030487,-0.461121,-0.002168,-0.001202,0.002589,-28.370001000000002,9.0,-27.75,2b
2019-07-15_162939:120,-0.190125,-0.028442000000000002,-0.46060200000000007,-0.002046,-0.001019,0.0027719999999999997,-27.68,10.37,-27.75,2b
2019-07-15_162939:140,-0.19165,-0.028961,-0.461121,-0.002565,-0.001385,0.002742,-27.68,10.37,-27.75,2b
2019-07-15_162939:160,-0.192688,-0.026427999999999997,-0.460114,-0.0033280000000000002,-0.001263,0.002711,-27.68,10.37,-27.75,2b
2019-07-15_162939:180,-0.193176,-0.028442000000000002,-0.460114,-0.003389,-0.00108,0.0031079999999999997,-27.25,9.0,-29.0,2b
2019-07-15_162939:200,-0.191162,-0.030487,-0.460114,-0.003786,-0.00108,0.00323,-27.25,9.0,-29.0,2b
2019-07-15_162939:220,-0.193176,-0.031494,-0.459595,-0.0038469999999999997,-0.000958,0.0033520000000000004,-27.68,8.56,-27.75,2b
2019-07-15_162939:240,-0.194214,-0.032532,-0.46060200000000007,-0.003664,-0.001019,0.00323,-27.68,8.56,-27.75,2b
2019-07-15_162939:260,-0.191162,-0.03302,-0.461639,-0.00345,-0.000897,0.003016,-27.68,8.56,-27.75,2b
2019-07-15_162939:280,-0.190125,-0.032013,-0.459595,-0.0033280000000000002,-0.001141,0.002711,-27.25,9.0,-28.18,2b
2019-07-15_162939:300,-0.190125,-0.032532,-0.458588,-0.0032670000000000004,-0.0011099999999999999,0.0027719999999999997,-27.25,9.0,-28.18,2b
2019-07-15_162939:320,-0.190643,-0.032013,-0.458588,-0.003023,-0.00108,0.002742,-27.68,8.56,-29.0,2b
2019-07-15_162939:340,-0.190125,-0.029968,-0.45706199999999997,-0.003114,-0.001263,0.002589,-27.68,8.56,-29.0,2b
2019-07-15_162939:360,-0.189117,-0.031006,-0.460114,-0.003145,-0.0014759999999999999,0.002742,-27.68,8.56,-29.0,2b
2019-07-15_162939:380,-0.189117,-0.031006,-0.461121,-0.003023,-0.0016589999999999999,0.0027719999999999997,-27.0,10.06,-28.18,2b
2019-07-15_162939:400,-0.189117,-0.031494,-0.461639,-0.003145,-0.0020559999999999997,0.00265,-27.0,10.06,-28.18,2b
2019-07-15_162939:420,-0.190125,-0.031494,-0.462646,-0.0029010000000000004,-0.001873,0.00265,-27.25,9.37,-28.559998999999998,2b
2019-07-15_162939:440,-0.190643,-0.031006,-0.461639,-0.0029010000000000004,-0.001934,0.002711,-27.25,9.37,-28.559998999999998,2b
2019-07-15_162939:460,-0.190643,-0.029968,-0.46316499999999994,-0.0028399999999999996,-0.001385,0.0027719999999999997,-27.25,9.37,-28.559998999999998,2b
2019-07-15_162939:480,-0.191162,-0.029968,-0.46316499999999994,-0.002779,-0.001263,0.003016,-27.68,9.0,-29.370001000000002,2b
2019-07-15_162939:500,-0.188599,-0.029480000000000003,-0.46316499999999994,-0.0029010000000000004,-0.001202,0.0028940000000000003,-27.68,9.0,-29.370001000000002,2b
2019-07-15_162939:520,-0.189117,-0.032013,-0.46316499999999994,-0.0029010000000000004,-0.0011099999999999999,0.0031079999999999997,-27.25,9.37,-29.0,2b
2019-07-15_162939:540,-0.187592,-0.031494,-0.462128,-0.0033280000000000002,-0.001202,0.0031079999999999997,-27.25,9.37,-29.0,2b
2019-07-15_162939:560,-0.187592,-0.031006,-0.461639,-0.003389,-0.000897,0.003169,-27.25,9.37,-29.0,2b
2019-07-15_162939:580,-0.18811,-0.031494,-0.461121,-0.00345,-0.0011099999999999999,0.003078,-27.68,10.06,-28.559998999999998,2b
2019-07-15_162939:600,-0.190125,-0.031494,-0.462128,-0.003389,-0.001202,0.003078,-27.68,10.06,-28.559998999999998,2b
2019-07-15_162939:620,-0.190643,-0.032013,-0.461639,-0.0033280000000000002,-0.000958,0.003078,-27.25,9.75,-29.370001000000002,2b
2019-07-15_162939:640,-0.188599,-0.032013,-0.460114,-0.0036030000000000003,-0.001019,0.003078,-27.25,9.75,-29.370001000000002,2b
2019-07-15_162939:660,-0.186584,-0.032013,-0.46060200000000007,-0.0036030000000000003,-0.000897,0.003078,-27.25,9.75,-29.370001000000002,2b
2019-07-15_162939:680,-0.189117,-0.032532,-0.46060200000000007,-0.00345,-0.001324,0.002955,-28.370001000000002,8.56,-28.18,2b
2019-07-15_162939:700,-0.189117,-0.032532,-0.462128,-0.00345,-0.001537,0.0028940000000000003,-28.370001000000002,8.56,-28.18,2b
2019-07-15_162939:720,-0.190643,-0.032532,-0.461121,-0.00345,-0.001446,0.0027719999999999997,-28.370001000000002,9.37,-28.18,2b
2019-07-15_162939:740,-0.192169,-0.032013,-0.460114,-0.003084,-0.001141,0.003169,-28.370001000000002,9.37,-28.18,2b
2019-07-15_162939:760,-0.189636,-0.032532,-0.461121,-0.0029620000000000002,-0.0007740000000000001,0.003169,-28.370001000000002,9.37,-28.18,2b
2019-07-15_162939:780,-0.189636,-0.031494,-0.46060200000000007,-0.003084,-0.000897,0.003016,-27.25,9.0,-29.75,2b
2019-07-15_162939:800,-0.18811,-0.032013,-0.460114,-0.003206,-0.000958,0.0034130000000000002,-27.25,9.0,-29.75,2b
2019-07-15_162939:820,-0.185059,-0.032013,-0.460114,-0.003389,-0.001263,0.0027719999999999997,-27.68,9.0,-29.0,2b
2019-07-15_162939:840,-0.188599,-0.029968,-0.462646,-0.003542,-0.0016589999999999999,0.002467,-27.68,9.0,-29.0,2b
2019-07-15_162939:860,-0.18811,-0.032013,-0.461639,-0.003542,-0.0014759999999999999,0.003169,-27.68,9.0,-29.0,2b
2019-07-15_162939:880,-0.188599,-0.03302,-0.46316499999999994,-0.003725,-0.001537,0.0027719999999999997,-27.68,9.37,-28.18,2b
2019-07-15_162939:900,-0.189117,-0.03302,-0.462128,-0.0036030000000000003,-0.001202,0.002467,-27.68,9.37,-28.18,2b
2019-07-15_162939:920,-0.185547,-0.032532,-0.461639,-0.0032670000000000004,-0.000958,0.00265,-27.25,9.37,-28.559998999999998,2b
2019-07-15_162939:940,-0.186066,-0.03302,-0.460114,-0.002687,-0.0007740000000000001,0.002955,-27.25,9.37,-28.559998999999998,2b
2019-07-15_162939:960,-0.188599,-0.031494,-0.461121,-0.002565,-0.000683,0.0027719999999999997,-27.25,9.37,-28.559998999999998,2b
2019-07-15_162939:980,-0.187073,-0.030487,-0.461639,-0.002687,-0.00108,0.002955,-27.25,9.37,-28.559998999999998,2b
2019-07-15_162940:000,-0.189117,-0.032013,-0.46316499999999994,-0.0028399999999999996,-0.001202,0.002833,-27.25,9.37,-28.559998999999998,2b
2019-07-15_162940:020,-0.191162,-0.031494,-0.462128,-0.003084,-0.001385,0.0028940000000000003,-28.0,9.75,-28.18,2b
2019-07-15_162940:040,-0.190125,-0.03302,-0.461639,-0.003084,-0.001263,0.00323,-28.0,9.75,-28.18,2b
2019-07-15_162940:060,-0.189117,-0.034058,-0.461639,-0.003084,-0.000958,0.002711,-28.0,9.75,-28.18,2b
2019-07-15_162940:080,-0.189636,-0.032013,-0.461639,-0.003145,-0.00108,0.0025280000000000003,-26.559998999999998,9.0,-27.75,2b
2019-07-15_162940:100,-0.185059,-0.032013,-0.461639,-0.003084,-0.000683,0.0031079999999999997,-26.559998999999998,9.0,-27.75,2b
2019-07-15_162940:120,-0.186066,-0.032532,-0.46060200000000007,-0.003084,-0.001141,0.003016,-28.0,9.0,-28.18,2b
2019-07-15_162940:140,-0.187592,-0.03302,-0.46060200000000007,-0.003114,-0.001263,0.0027719999999999997,-28.0,9.0,-28.18,2b
2019-07-15_162940:160,-0.18811,-0.03302,-0.460114,-0.003023,-0.001446,0.0028940000000000003,-28.0,9.0,-28.18,2b
2019-07-15_162940:180,-0.187073,-0.032013,-0.46060200000000007,-0.003389,-0.001782,0.002711,-27.0,9.37,-28.559998999999998,2b
2019-07-15_162940:200,-0.185059,-0.032532,-0.461639,-0.003145,-0.0014759999999999999,0.0025280000000000003,-27.0,9.37,-28.559998999999998,2b
2019-07-15_162940:220,-0.185547,-0.032532,-0.462128,-0.0033280000000000002,-0.0016589999999999999,0.00265,-27.0,9.37,-29.0,2b
2019-07-15_162940:240,-0.186584,-0.032532,-0.462128,-0.003145,-0.001873,0.0025280000000000003,-27.0,9.37,-29.0,2b
2019-07-15_162940:260,-0.18811,-0.032532,-0.462646,-0.003114,-0.0016589999999999999,0.0024059999999999997,-27.0,9.37,-29.0,2b
2019-07-15_162940:280,-0.189636,-0.032532,-0.46316499999999994,-0.0029620000000000002,-0.001446,0.002589,-27.25,9.37,-28.559998999999998,2b
2019-07-15_162940:300,-0.187592,-0.032532,-0.462646,-0.003114,-0.001263,0.0027719999999999997,-27.25,9.37,-28.559998999999998,2b
2019-07-15_162940:320,-0.187592,-0.03302,-0.463654,-0.0028399999999999996,-0.001202,0.002833,-27.25,9.37,-29.370001000000002,2b
2019-07-15_162940:340,-0.184021,-0.032532,-0.46316499999999994,-0.0029010000000000004,-0.001324,0.002955,-27.25,9.37,-29.370001000000002,2b
2019-07-15_162940:360,-0.185547,-0.031494,-0.462646,-0.003206,-0.001324,0.003016,-27.25,9.37,-29.370001000000002,2b
2019-07-15_162940:380,-0.18454,-0.031494,-0.46316499999999994,-0.0034799999999999996,-0.001385,0.003016,-26.559998999999998,9.37,-27.75,2b
2019-07-15_162940:400,-0.185547,-0.032532,-0.462128,-0.003114,-0.001324,0.002955,-26.559998999999998,9.37,-27.75,2b
2019-07-15_162940:420,-0.185059,-0.032532,-0.462646,-0.0033280000000000002,-0.001202,0.003078,-27.25,9.0,-27.370001000000002,2b
2019-07-15_162940:440,-0.185547,-0.034058,-0.46316499999999994,-0.0033280000000000002,-0.001385,0.0027719999999999997,-27.25,9.0,-27.370001000000002,2b
2019-07-15_162940:460,-0.186584,-0.032013,-0.462646,-0.0033280000000000002,-0.001202,0.002955,-27.25,9.0,-27.370001000000002,2b
2019-07-15_162940:480,-0.188599,-0.03302,-0.463654,-0.003145,-0.001019,0.003078,-28.0,10.06,-29.370001000000002,2b
2019-07-15_162940:500,-0.183014,-0.033539,-0.462128,-0.0033280000000000002,-0.00108,0.0028940000000000003,-28.0,10.06,-29.370001000000002,2b
2019-07-15_162940:520,-0.185547,-0.032532,-0.463654,-0.0034799999999999996,-0.001202,0.002711,-27.68,9.75,-28.559998999999998,2b
2019-07-15_162940:540,-0.186584,-0.033539,-0.462646,-0.00345,-0.001324,0.002742,-27.68,9.75,-28.559998999999998,2b
2019-07-15_162940:560,-0.185547,-0.034058,-0.46316499999999994,-0.003023,-0.001141,0.002711,-27.68,9.75,-28.559998999999998,2b
2019-07-15_162940:580,-0.185547,-0.032532,-0.462646,-0.0032670000000000004,-0.000958,0.002711,-27.0,9.37,-29.370001000000002,2b
2019-07-15_162940:600,-0.186066,-0.03302,-0.462128,-0.003084,-0.001324,0.00265,-27.0,9.37,-29.370001000000002,2b
2019-07-15_162940:620,-0.189117,-0.032013,-0.46417200000000003,-0.003023,-0.001324,0.002955,-27.25,9.75,-28.559998999999998,2b
2019-07-15_162940:640,-0.18811,-0.032013,-0.46316499999999994,-0.003114,-0.00108,0.003169,-27.25,9.75,-28.559998999999998,2b
2019-07-15_162940:660,-0.182007,-0.031006,-0.462128,-0.003389,-0.0007440000000000001,0.002254,-27.25,9.75,-28.559998999999998,2b
2019-07-15_162940:680,-0.183533,-0.029968,-0.46316499999999994,-0.0038469999999999997,-0.001202,0.00207,-27.25,8.56,-28.18,2b
2019-07-15_162940:700,-0.18249500000000002,-0.032532,-0.462128,-0.003999,-0.001202,0.0027719999999999997,-27.25,8.56,-28.18,2b
2019-07-15_162940:720,-0.182007,-0.034546,-0.463654,-0.0038770000000000002,-0.0016589999999999999,0.002315,-27.25,9.37,-28.559998999999998,2b
2019-07-15_162940:740,-0.187073,-0.035583,-0.463654,-0.0033280000000000002,-0.001324,0.001857,-27.25,9.37,-28.559998999999998,2b
2019-07-15_162940:760,-0.186066,-0.034546,-0.463654,-0.002565,-0.001141,0.0021920000000000004,-27.25,9.37,-28.559998999999998,2b
2019-07-15_162940:780,-0.18454,-0.03302,-0.46417200000000003,-0.0019850000000000002,-0.0008349999999999999,0.002742,-27.25,9.37,-28.559998999999998,2b
2019-07-15_162940:800,-0.185059,-0.030487,-0.462128,-0.001955,-0.000683,0.002742,-27.25,9.37,-28.559998999999998,2b
2019-07-15_162940:820,-0.183533,-0.028442000000000002,-0.46417200000000003,-0.0025039999999999997,-0.0007440000000000001,0.002833,-25.75,9.0,-29.0,2b
2019-07-15_162940:840,-0.185547,-0.028961,-0.462646,-0.003023,-0.000897,0.0028940000000000003,-25.75,9.0,-29.0,2b
2019-07-15_162940:860,-0.187073,-0.029968,-0.46316499999999994,-0.003664,-0.0008349999999999999,0.002833,-25.75,9.0,-29.0,2b
2019-07-15_162940:880,-0.187073,-0.031006,-0.462128,-0.0038770000000000002,-0.00034700000000000003,0.003169,-28.0,9.75,-28.18,2b
2019-07-15_162940:900,-0.185059,-0.032532,-0.460114,-0.00406,-0.00034700000000000003,0.003169,-28.0,9.75,-28.18,2b
2019-07-15_162940:920,-0.185547,-0.03302,-0.462646,-0.003725,-0.000225,0.003169,-27.25,9.37,-28.559998999999998,2b
2019-07-15_162940:940,-0.183533,-0.033539,-0.462128,-0.0034799999999999996,-0.0006219999999999999,0.003474,-27.25,9.37,-28.559998999999998,2b
2019-07-15_162940:960,-0.185059,-0.034546,-0.462128,-0.003389,-0.0011099999999999999,0.0031079999999999997,-27.25,9.37,-28.559998999999998,2b
2019-07-15_162940:980,-0.18454,-0.034058,-0.461121,-0.003206,-0.00108,0.003078,-27.68,9.75,-27.75,2b
2019-07-15_162941:000,-0.18454,-0.034546,-0.460114,-0.003084,-0.0011099999999999999,0.0031079999999999997,-27.68,9.75,-27.75,2b
2019-07-15_162941:020,-0.18454,-0.03302,-0.462646,-0.003114,-0.00108,0.0025280000000000003,-27.0,9.37,-27.75,2b
2019-07-15_162941:040,-0.183014,-0.033539,-0.462646,-0.003114,-0.00108,0.0025280000000000003,-27.0,9.37,-27.75,2b
2019-07-15_162941:060,-0.183533,-0.03302,-0.462128,-0.002687,-0.001202,0.002711,-27.0,9.37,-27.75,2b
2019-07-15_162941:080,-0.183533,-0.03302,-0.46417200000000003,-0.002687,-0.001385,0.0025280000000000003,-27.25,9.0,-27.0,2b
2019-07-15_162941:100,-0.183533,-0.032532,-0.46417200000000003,-0.0028399999999999996,-0.001446,0.00265,-27.25,9.0,-27.0,2b
2019-07-15_162941:120,-0.185547,-0.032532,-0.46469099999999997,-0.0029620000000000002,-0.001446,0.00265,-28.0,9.0,-27.370001000000002,2b
2019-07-15_162941:140,-0.185547,-0.031006,-0.46469099999999997,-0.003023,-0.00108,0.002955,-28.0,9.0,-27.370001000000002,2b
2019-07-15_162941:160,-0.183533,-0.031006,-0.46316499999999994,-0.0033280000000000002,-0.001019,0.003016,-28.0,9.0,-27.370001000000002,2b
2019-07-15_162941:180,-0.18454,-0.031494,-0.467224,-0.003542,-0.000897,0.003078,-27.0,9.75,-29.370001000000002,2b
2019-07-15_162941:200,-0.186584,-0.032532,-0.46316499999999994,-0.0034799999999999996,-0.0005610000000000001,0.0031079999999999997,-27.0,9.75,-29.370001000000002,2b
2019-07-15_162941:220,-0.183533,-0.033539,-0.46417200000000003,-0.00345,-0.0005610000000000001,0.0033520000000000004,-27.25,9.75,-29.370001000000002,2b
2019-07-15_162941:240,-0.185059,-0.032532,-0.46316499999999994,-0.0034799999999999996,-0.000286,0.003078,-27.25,9.75,-29.370001000000002,2b
2019-07-15_162941:260,-0.183533,-0.03302,-0.462646,-0.0036030000000000003,-0.000225,0.003078,-27.25,9.75,-29.370001000000002,2b
2019-07-15_162941:280,-0.183533,-0.035065,-0.462646,-0.003389,-0.0005,0.002955,-27.68,10.06,-29.370001000000002,2b
2019-07-15_162941:300,-0.184021,-0.034546,-0.461639,-0.0032670000000000004,-0.000683,0.002589,-27.68,10.06,-29.370001000000002,2b
2019-07-15_162941:320,-0.186066,-0.03302,-0.462128,-0.003114,-0.00037799999999999997,0.002742,-27.0,9.37,-28.559998999999998,2b
2019-07-15_162941:340,-0.183014,-0.033539,-0.462128,-0.003084,-0.000164,0.002589,-27.0,9.37,-28.559998999999998,2b
2019-07-15_162941:360,-0.183533,-0.032532,-0.462646,-0.003145,-0.0007740000000000001,0.002711,-27.0,9.37,-28.559998999999998,2b
2019-07-15_162941:380,-0.184021,-0.033539,-0.462128,-0.003114,-0.0007740000000000001,0.00265,-27.68,10.06,-28.18,2b
2019-07-15_162941:400,-0.186584,-0.032532,-0.462128,-0.0029620000000000002,-0.0011099999999999999,0.0024059999999999997,-27.68,10.06,-28.18,2b
2019-07-15_162941:420,-0.187073,-0.032013,-0.463654,-0.003023,-0.00108,0.002711,-27.68,10.06,-28.18,2b
2019-07-15_162941:440,-0.186066,-0.033539,-0.462128,-0.003145,-0.001019,0.002742,-26.559998999999998,10.06,-28.559998999999998,2b
2019-07-15_162941:460,-0.188599,-0.032013,-0.462128,-0.003389,-0.0007740000000000001,0.002742,-26.559998999999998,10.06,-28.559998999999998,2b
2019-07-15_162941:480,-0.183533,-0.029968,-0.462128,-0.003114,-0.0007440000000000001,0.0032909999999999997,-27.25,10.06,-28.18,2b
2019-07-15_162941:500,-0.182007,-0.032013,-0.46060200000000007,-0.00406,-0.001141,0.002711,-27.25,10.06,-28.18,2b
2019-07-15_162941:520,-0.183014,-0.030487,-0.462128,-0.004274,-0.0014759999999999999,0.002131,-27.25,10.06,-28.18,2b
2019-07-15_162941:540,-0.184021,-0.033539,-0.46316499999999994,-0.004793,-0.001263,0.002742,-27.68,9.37,-29.0,2b
2019-07-15_162941:560,-0.181488,-0.036591000000000005,-0.463654,-0.004579,-0.001202,0.002742,-27.68,9.37,-29.0,2b
2019-07-15_162941:580,-0.185059,-0.038116000000000004,-0.466217,-0.003725,-0.0014759999999999999,0.002254,-27.68,9.75,-28.559998999999998,2b
2019-07-15_162941:600,-0.185059,-0.036591000000000005,-0.46316499999999994,-0.002748,-0.001141,0.002254,-27.68,9.75,-28.559998999999998,2b
2019-07-15_162941:620,-0.184021,-0.032532,-0.463654,-0.002107,-0.00108,0.0027719999999999997,-27.68,9.75,-28.559998999999998,2b
2019-07-15_162941:640,-0.185059,-0.030487,-0.46316499999999994,-0.001771,-0.00037799999999999997,0.0031079999999999997,-27.25,9.37,-29.370001000000002,2b
2019-07-15_162941:660,-0.18249500000000002,-0.028961,-0.46316499999999994,-0.002107,-0.000225,0.002955,-27.25,9.37,-29.370001000000002,2b
2019-07-15_162941:680,-0.18454,-0.029968,-0.46417200000000003,-0.0029010000000000004,-0.0006219999999999999,0.0028940000000000003,-27.68,9.75,-28.18,2b
2019-07-15_162941:700,-0.18454,-0.028442000000000002,-0.463654,-0.0034799999999999996,-0.0007440000000000001,0.002711,-27.68,9.75,-28.18,2b
2019-07-15_162941:720,-0.187073,-0.032532,-0.463654,-0.0039380000000000005,-0.0007440000000000001,0.002955,-27.68,9.75,-28.18,2b
2019-07-15_162941:740,-0.18454,-0.032532,-0.462646,-0.0038469999999999997,-0.000683,0.003016,-27.25,9.75,-28.559998999999998,2b
2019-07-15_162941:760,-0.183533,-0.036072,-0.462128,-0.003664,-0.000683,0.003078,-27.25,9.75,-28.559998999999998,2b
2019-07-15_162941:780,-0.18454,-0.035583,-0.462128,-0.003542,-0.000958,0.003016,-27.0,9.37,-29.0,2b
2019-07-15_162941:800,-0.184021,-0.035583,-0.46060200000000007,-0.003206,-0.000897,0.002955,-27.0,9.37,-29.0,2b
2019-07-15_162941:820,-0.185547,-0.03302,-0.462128,-0.003206,-0.0007740000000000001,0.0025280000000000003,-27.0,9.37,-29.0,2b
2019-07-15_162941:840,-0.184021,-0.035065,-0.461121,-0.0032670000000000004,-0.0007440000000000001,0.0024059999999999997,-27.25,9.0,-29.0,2b
2019-07-15_162941:860,-0.183014,-0.033539,-0.462646,-0.003206,-0.0007740000000000001,0.0024059999999999997,-27.25,9.0,-29.0,2b
2019-07-15_162941:880,-0.183533,-0.032532,-0.462128,-0.003145,-0.000897,0.002254,-26.559998999999998,9.0,-28.559998999999998,2b
2019-07-15_162941:900,-0.18249500000000002,-0.032013,-0.462128,-0.0028399999999999996,-0.001019,0.0024059999999999997,-26.559998999999998,9.0,-28.559998999999998,2b
2019-07-15_162941:920,-0.183533,-0.032013,-0.462128,-0.0025039999999999997,-0.00108,0.002742,-26.559998999999998,9.0,-28.559998999999998,2b
2019-07-15_162941:940,-0.18249500000000002,-0.031494,-0.462646,-0.0026260000000000003,-0.001324,0.0027719999999999997,-27.68,9.37,-29.370001000000002,2b
2019-07-15_162941:960,-0.183014,-0.031006,-0.463654,-0.0028399999999999996,-0.001385,0.0028940000000000003,-27.68,9.37,-29.370001000000002,2b
2019-07-15_162941:980,-0.185059,-0.031006,-0.46417200000000003,-0.003114,-0.001446,0.0031079999999999997,-27.68,9.37,-28.559998999999998,2b
2019-07-15_162942:000,-0.185547,-0.032532,-0.462646,-0.003389,-0.0011099999999999999,0.0031079999999999997,-27.68,9.37,-28.559998999999998,2b
2019-07-15_162942:020,-0.183533,-0.034058,-0.465179,-0.00345,-0.001141,0.003078,-27.68,9.37,-28.559998999999998,2b
2019-07-15_162942:040,-0.185059,-0.034546,-0.463654,-0.0036030000000000003,-0.00108,0.002955,-26.559998999999998,9.0,-28.559998999999998,2b
2019-07-15_162942:060,-0.183533,-0.034058,-0.46316499999999994,-0.0032670000000000004,-0.0007740000000000001,0.0031079999999999997,-26.559998999999998,9.0,-28.559998999999998,2b
2019-07-15_162942:080,-0.183533,-0.034058,-0.462646,-0.0033280000000000002,-0.0005610000000000001,0.002742,-27.68,8.56,-29.0,2b
2019-07-15_162942:100,-0.183533,-0.033539,-0.462646,-0.00345,-0.0006219999999999999,0.0027719999999999997,-27.68,8.56,-29.0,2b
2019-07-15_162942:120,-0.18454,-0.032532,-0.463654,-0.003206,-0.0006219999999999999,0.002833,-27.68,8.56,-29.0,2b
2019-07-15_162942:140,-0.185059,-0.032532,-0.463654,-0.003542,-0.000897,0.003016,-27.68,9.37,-29.0,2b
2019-07-15_162942:160,-0.184021,-0.032013,-0.462646,-0.0034799999999999996,-0.0006219999999999999,0.0028940000000000003,-27.68,9.37,-29.0,2b
2019-07-15_162942:180,-0.18249500000000002,-0.03302,-0.462128,-0.003542,-0.0006219999999999999,0.003078,-26.559998999999998,9.75,-29.370001000000002,2b
2019-07-15_162942:200,-0.183014,-0.03302,-0.462128,-0.0039380000000000005,-0.000683,0.003016,-26.559998999999998,9.75,-29.370001000000002,2b
2019-07-15_162942:220,-0.18454,-0.033539,-0.46316499999999994,-0.0039380000000000005,-0.001019,0.0028940000000000003,-26.559998999999998,9.75,-29.370001000000002,2b
2019-07-15_162942:240,-0.186066,-0.033539,-0.462128,-0.003725,-0.0007740000000000001,0.002833,-27.68,9.75,-28.559998999999998,2b
2019-07-15_162942:260,-0.184021,-0.034546,-0.462128,-0.0036030000000000003,-0.0008349999999999999,0.002955,-27.68,9.75,-28.559998999999998,2b
2019-07-15_162942:280,-0.187073,-0.03302,-0.462646,-0.0034799999999999996,-0.0007740000000000001,0.002742,-27.25,10.37,-29.75,2b
2019-07-15_162942:300,-0.183533,-0.031494,-0.46060200000000007,-0.003542,-0.001019,0.002955,-27.25,10.37,-29.75,2b
2019-07-15_162942:320,-0.17996199999999998,-0.032532,-0.462128,-0.003542,-0.001202,0.002833,-27.25,10.37,-29.75,2b
2019-07-15_162942:340,-0.18096900000000002,-0.032532,-0.46316499999999994,-0.00406,-0.001843,0.001796,-27.25,9.75,-28.18,2b
2019-07-15_162942:360,-0.186066,-0.031494,-0.46469099999999997,-0.004243,-0.001934,0.0024059999999999997,-27.25,9.75,-28.18,2b
2019-07-15_162942:380,-0.183014,-0.034058,-0.465179,-0.0039380000000000005,-0.001537,0.002589,-26.559998999999998,9.0,-28.559998999999998,2b
2019-07-15_162942:400,-0.18454,-0.03302,-0.46469099999999997,-0.003786,-0.001263,0.002131,-26.559998999999998,9.0,-28.559998999999998,2b
2019-07-15_162942:420,-0.188599,-0.033539,-0.465179,-0.0033280000000000002,-0.000958,0.0024059999999999997,-26.559998999999998,9.0,-28.559998999999998,2b
2019-07-15_162942:440,-0.184021,-0.032013,-0.46417200000000003,-0.003114,-0.000103,0.002742,-28.0,9.0,-29.0,2b
2019-07-15_162942:460,-0.183533,-0.028961,-0.46469099999999997,-0.003023,-0.000225,0.0028940000000000003,-28.0,9.0,-29.0,2b
2019-07-15_162942:480,-0.182007,-0.029968,-0.462646,-0.003114,-0.000286,0.003078,-27.25,9.75,-29.0,2b
2019-07-15_162942:500,-0.185059,-0.029968,-0.461121,-0.0036030000000000003,-0.0006219999999999999,0.0031079999999999997,-27.25,9.75,-29.0,2b
2019-07-15_162942:520,-0.185547,-0.029480000000000003,-0.462646,-0.003725,-0.0005610000000000001,0.0031079999999999997,-27.25,9.75,-29.0,2b
2019-07-15_162942:540,-0.187592,-0.032013,-0.461121,-0.0038469999999999997,-0.0007440000000000001,0.0034130000000000002,-27.25,9.0,-29.75,2b
2019-07-15_162942:560,-0.184021,-0.033539,-0.461121,-0.00406,-0.0006219999999999999,0.0033520000000000004,-27.25,9.0,-29.75,2b
2019-07-15_162942:580,-0.18454,-0.03302,-0.461121,-0.003999,-0.0007740000000000001,0.00265,-27.0,9.75,-29.75,2b
2019-07-15_162942:600,-0.183533,-0.03302,-0.46060200000000007,-0.003725,-0.001202,0.0027719999999999997,-27.0,9.75,-29.75,2b
2019-07-15_162942:620,-0.183014,-0.035065,-0.461639,-0.0034799999999999996,-0.001019,0.0027719999999999997,-27.0,9.75,-29.75,2b
2019-07-15_162942:640,-0.185059,-0.033539,-0.462128,-0.0032670000000000004,-0.001385,0.0025280000000000003,-27.25,9.37,-28.559998999999998,2b
2019-07-15_162942:660,-0.186066,-0.033539,-0.46417200000000003,-0.002748,-0.001385,0.0024059999999999997,-27.25,9.37,-28.559998999999998,2b
2019-07-15_162942:680,-0.185547,-0.031494,-0.463654,-0.002565,-0.001385,0.002131,-27.25,9.0,-28.559998999999998,2b
2019-07-15_162942:700,-0.183014,-0.031494,-0.46316499999999994,-0.0026260000000000003,-0.001141,0.0021920000000000004,-27.25,9.0,-28.559998999999998,2b
2019-07-15_162942:720,-0.182007,-0.030487,-0.463654,-0.002687,-0.001537,0.002131,-27.25,9.0,-28.559998999999998,2b
2019-07-15_162942:740,-0.18249500000000002,-0.032013,-0.462128,-0.0026260000000000003,-0.001782,0.002009,-27.25,9.0,-27.370001000000002,2b
2019-07-15_162942:760,-0.18096900000000002,-0.029968,-0.463654,-0.0026260000000000003,-0.001598,0.002009,-27.25,9.0,-27.370001000000002,2b
2019-07-15_162942:780,-0.183533,-0.030487,-0.46569799999999995,-0.002687,-0.001782,0.002315,-27.68,9.37,-27.75,2b
2019-07-15_162942:800,-0.183014,-0.029968,-0.46417200000000003,-0.0025039999999999997,-0.001537,0.002467,-27.68,9.37,-27.75,2b
2019-07-15_162942:820,-0.183014,-0.029968,-0.465179,-0.0028399999999999996,-0.001537,0.002742,-27.68,9.37,-27.75,2b
2019-07-15_162942:840,-0.184021,-0.031006,-0.466217,-0.002779,-0.0014759999999999999,0.002742,-27.0,9.75,-28.18,2b
2019-07-15_162942:860,-0.183533,-0.031006,-0.46417200000000003,-0.0028399999999999996,-0.001263,0.003016,-27.0,9.75,-28.18,2b
2019-07-15_162942:880,-0.183014,-0.031006,-0.465179,-0.003023,-0.001202,0.0031079999999999997,-27.0,9.37,-28.559998999999998,2b
2019-07-15_162942:900,-0.184021,-0.032532,-0.46417200000000003,-0.003145,-0.001019,0.002955,-27.0,9.37,-28.559998999999998,2b
2019-07-15_162942:920,-0.181488,-0.031494,-0.46417200000000003,-0.003145,-0.0008349999999999999,0.003016,-27.0,9.37,-28.559998999999998,2b
2019-07-15_162942:940,-0.182007,-0.032013,-0.463654,-0.003206,-0.0007440000000000001,0.002955,-27.0,9.75,-27.75,2b
2019-07-15_162942:960,-0.181488,-0.031494,-0.46417200000000003,-0.0032670000000000004,-0.001019,0.003169,-27.0,9.75,-27.75,2b
2019-07-15_162942:980,-0.18249500000000002,-0.032532,-0.463654,-0.003389,-0.001202,0.003016,-27.25,9.75,-29.0,2b
2019-07-15_162943:000,-0.184021,-0.03302,-0.462646,-0.00345,-0.001385,0.0028940000000000003,-27.25,9.75,-29.0,2b
2019-07-15_162943:020,-0.183014,-0.034058,-0.46417200000000003,-0.003389,-0.0007740000000000001,0.003016,-27.25,9.75,-29.0,2b
2019-07-15_162943:040,-0.184021,-0.034546,-0.46316499999999994,-0.003206,-0.000958,0.003078,-26.559998999999998,9.37,-29.370001000000002,2b
2019-07-15_162943:060,-0.185059,-0.032013,-0.462646,-0.0029620000000000002,-0.0008349999999999999,0.00323,-26.559998999999998,9.37,-29.370001000000002,2b
2019-07-15_162943:080,-0.183014,-0.03302,-0.461639,-0.003206,-0.000897,0.0035659999999999997,-27.0,9.0,-28.18,2b
2019-07-15_162943:100,-0.178955,-0.032013,-0.461639,-0.003389,-0.0008349999999999999,0.0028940000000000003,-27.0,9.0,-28.18,2b
2019-07-15_162943:120,-0.18096900000000002,-0.031494,-0.46469099999999997,-0.0038770000000000002,-0.0011099999999999999,0.002467,-27.0,9.0,-28.18,2b
2019-07-15_162943:140,-0.17996199999999998,-0.033539,-0.46417200000000003,-0.004121,-0.001385,0.003169,-27.25,9.0,-28.18,2b
2019-07-15_162943:160,-0.17996199999999998,-0.035065,-0.46469099999999997,-0.0038770000000000002,-0.0014759999999999999,0.002833,-27.25,9.0,-28.18,2b
2019-07-15_162943:180,-0.186584,-0.036591000000000005,-0.465179,-0.003725,-0.00172,0.002315,-27.25,9.37,-29.370001000000002,2b
2019-07-15_162943:200,-0.183533,-0.035065,-0.46469099999999997,-0.003023,-0.0011099999999999999,0.0025280000000000003,-27.25,9.37,-29.370001000000002,2b
2019-07-15_162943:220,-0.182007,-0.032013,-0.466217,-0.0025039999999999997,-0.0007740000000000001,0.0028940000000000003,-27.25,9.37,-29.370001000000002,2b
2019-07-15_162943:240,-0.18096900000000002,-0.032013,-0.46316499999999994,-0.00229,-0.000683,0.003169,-28.0,10.06,-28.559998999999998,2b
2019-07-15_162943:260,-0.18249500000000002,-0.032013,-0.46417200000000003,-0.0025039999999999997,-0.0005610000000000001,0.002955,-28.0,10.06,-28.559998999999998,2b
2019-07-15_162943:280,-0.181488,-0.029968,-0.46316499999999994,-0.002779,-0.000958,0.002742,-26.559998999999998,9.37,-30.18,2b
2019-07-15_162943:300,-0.18454,-0.032013,-0.463654,-0.003114,-0.0007740000000000001,0.002833,-26.559998999999998,9.37,-30.18,2b
2019-07-15_162943:320,-0.183014,-0.032532,-0.463654,-0.0034799999999999996,-0.001141,0.0028940000000000003,-26.559998999999998,9.37,-30.18,2b
2019-07-15_162943:340,-0.182007,-0.03302,-0.462646,-0.003786,-0.0008349999999999999,0.002833,-27.25,10.06,-28.18,2b
2019-07-15_162943:360,-0.184021,-0.033539,-0.46316499999999994,-0.003999,-0.001385,0.0027719999999999997,-27.25,10.06,-28.18,2b
2019-07-15_162943:380,-0.18249500000000002,-0.034546,-0.463654,-0.003725,-0.001141,0.0027719999999999997,-27.25,9.0,-29.0,2b
2019-07-15_162943:400,-0.184021,-0.034546,-0.463654,-0.003664,-0.001263,0.002711,-27.25,9.0,-29.0,2b
2019-07-15_162943:420,-0.183014,-0.035065,-0.465179,-0.00345,-0.001385,0.0024059999999999997,-27.25,9.0,-29.0,2b
2019-07-15_162943:440,-0.18249500000000002,-0.034546,-0.462646,-0.0029620000000000002,-0.001202,0.0025280000000000003,-27.25,9.75,-27.370001000000002,2b
2019-07-15_162943:460,-0.183533,-0.03302,-0.462646,-0.003145,-0.001263,0.002315,-27.25,9.75,-27.370001000000002,2b
2019-07-15_162943:480,-0.18096900000000002,-0.032532,-0.463654,-0.003023,-0.001141,0.001979,-27.0,9.0,-29.370001000000002,2b
2019-07-15_162943:500,-0.17944300000000002,-0.030487,-0.46417200000000003,-0.0029620000000000002,-0.001202,0.00207,-27.0,9.0,-29.370001000000002,2b
2019-07-15_162943:520,-0.17843599999999998,-0.031006,-0.463654,-0.0032670000000000004,-0.001537,0.002009,-27.0,9.0,-29.370001000000002,2b
2019-07-15_162943:540,-0.180481,-0.029968,-0.463654,-0.0033280000000000002,-0.001843,0.002254,-26.559998999999998,9.75,-27.75,2b
2019-07-15_162943:560,-0.183014,-0.029968,-0.46417200000000003,-0.0033280000000000002,-0.001782,0.002589,-26.559998999999998,9.75,-27.75,2b
2019-07-15_162943:580,-0.181488,-0.030487,-0.467224,-0.00345,-0.001385,0.002742,-27.0,9.75,-29.75,2b
2019-07-15_162943:600,-0.18096900000000002,-0.030487,-0.465179,-0.003725,-0.001537,0.002955,-27.0,9.75,-29.75,2b
2019-07-15_162943:620,-0.180481,-0.031494,-0.465179,-0.0038770000000000002,-0.0014759999999999999,0.003016,-27.0,9.75,-29.75,2b
2019-07-15_162943:640,-0.18096900000000002,-0.032013,-0.46316499999999994,-0.0038469999999999997,-0.001537,0.0031079999999999997,-27.0,9.37,-27.75,2b
2019-07-15_162943:660,-0.17996199999999998,-0.029968,-0.46469099999999997,-0.0039380000000000005,-0.001324,0.0032909999999999997,-27.0,9.37,-27.75,2b
2019-07-15_162943:680,-0.176422,-0.031494,-0.46417200000000003,-0.004457,-0.001782,0.0033520000000000004,-27.0,9.37,-29.370001000000002,2b
2019-07-15_162943:700,-0.176422,-0.031006,-0.46316499999999994,-0.004182,-0.0016589999999999999,0.00323,-27.0,9.37,-29.370001000000002,2b
2019-07-15_162943:720,-0.177429,-0.029968,-0.463654,-0.004518,-0.002667,0.0034130000000000002,-27.0,9.37,-29.370001000000002,2b
2019-07-15_162943:740,-0.177429,-0.031006,-0.46316499999999994,-0.004579,-0.00285,0.0035659999999999997,-27.25,9.37,-29.370001000000002,2b
2019-07-15_162943:760,-0.177948,-0.030487,-0.46469099999999997,-0.004518,-0.0031850000000000003,0.003871,-27.25,9.37,-29.370001000000002,2b
2019-07-15_162943:780,-0.17996199999999998,-0.031006,-0.462646,-0.004121,-0.003307,0.004542,-27.0,9.0,-29.0,2b
2019-07-15_162943:800,-0.185547,-0.027954000000000003,-0.46417200000000003,-0.00406,-0.003002,0.004542,-27.0,9.0,-29.0,2b
2019-07-15_162943:820,-0.18249500000000002,-0.025908999999999998,-0.46569799999999995,-0.005128,-0.002728,0.004634,-27.0,9.0,-29.0,2b
2019-07-15_162943:840,-0.181488,-0.028961,-0.466217,-0.005525,-0.0021780000000000002,0.004634,-26.559998999999998,9.37,-27.370001000000002,2b
2019-07-15_162943:860,-0.18249500000000002,-0.029480000000000003,-0.46823100000000006,-0.005647,-0.0014759999999999999,0.003871,-26.559998999999998,9.37,-27.370001000000002,2b
2019-07-15_162943:880,-0.180481,-0.029968,-0.46875,-0.005312,-0.0007440000000000001,0.004024,-27.0,9.75,-29.0,2b
2019-07-15_162943:900,-0.177948,-0.030487,-0.469757,-0.005067,-0.0008349999999999999,0.004878,-27.0,9.75,-29.0,2b
2019-07-15_162943:920,-0.17538499999999999,-0.031494,-0.471283,-0.004335,-0.001324,0.005733,-27.0,9.75,-29.0,2b
2019-07-15_162943:940,-0.168793,-0.027954000000000003,-0.46875,-0.003999,-0.001324,0.00561,-26.18,9.37,-28.18,2b
2019-07-15_162943:960,-0.165222,-0.024902,-0.466217,-0.0038770000000000002,-0.002911,0.006221,-26.18,9.37,-28.18,2b
2019-07-15_162943:980,-0.165741,-0.024902,-0.46316499999999994,-0.004396,-0.003979,0.008081999999999999,-27.0,10.06,-29.0,2b
2019-07-15_162944:000,-0.177429,-0.026427999999999997,-0.45907600000000004,-0.0049759999999999995,-0.004589,0.008265,-27.0,10.06,-29.0,2b
2019-07-15_162944:020,-0.17690999999999998,-0.027954000000000003,-0.46417200000000003,-0.005525,-0.004101,0.007258,-27.0,10.06,-29.0,2b
2019-07-15_162944:040,-0.177429,-0.028961,-0.46670500000000004,-0.006044,-0.003918,0.006068,-26.559998999999998,9.37,-28.559998999999998,2b
2019-07-15_162944:060,-0.186066,-0.032013,-0.46670500000000004,-0.006044,-0.003307,0.0051530000000000005,-26.559998999999998,9.37,-28.559998999999998,2b
2019-07-15_162944:080,-0.17843599999999998,-0.034546,-0.470276,-0.005525,-0.0021780000000000002,0.005488,-26.18,10.06,-29.75,2b
2019-07-15_162944:100,-0.17944300000000002,-0.036072,-0.46926899999999994,-0.004793,-0.0014759999999999999,0.005092,-26.18,10.06,-29.75,2b
2019-07-15_162944:120,-0.177429,-0.035065,-0.46875,-0.0038770000000000002,-0.001324,0.003963,-26.18,10.06,-29.75,2b
2019-07-15_162944:140,-0.172333,-0.033539,-0.46823100000000006,-0.0032670000000000004,-0.001019,0.003474,-26.18,10.06,-29.0,2b
2019-07-15_162944:160,-0.17337,-0.033539,-0.467743,-0.003084,-0.001324,0.003078,-26.18,10.06,-29.0,2b
2019-07-15_162944:180,-0.17538499999999999,-0.032532,-0.467224,-0.0029010000000000004,-0.001202,0.0027719999999999997,-26.18,9.75,-29.370001000000002,2b
2019-07-15_162944:200,-0.17385899999999999,-0.031494,-0.466217,-0.002687,-0.001019,0.0025280000000000003,-26.18,9.75,-29.370001000000002,2b
2019-07-15_162944:220,-0.171844,-0.031494,-0.46823100000000006,-0.002687,-0.0008349999999999999,0.002009,-26.18,9.75,-29.370001000000002,2b
2019-07-15_162944:240,-0.171844,-0.031494,-0.465179,-0.002748,-0.001598,0.001918,-26.18,10.06,-29.370001000000002,2b
2019-07-15_162944:260,-0.17337,-0.029968,-0.46670500000000004,-0.002443,-0.001446,0.0017350000000000002,-26.18,10.06,-29.370001000000002,2b
2019-07-15_162944:280,-0.171844,-0.028442000000000002,-0.46875,-0.002565,-0.0011099999999999999,0.0021920000000000004,-27.0,9.37,-29.0,2b
2019-07-15_162944:300,-0.1698,-0.028442000000000002,-0.46823100000000006,-0.0026260000000000003,-0.001324,0.002254,-27.0,9.37,-29.0,2b
2019-07-15_162944:320,-0.171326,-0.027435,-0.467743,-0.002565,-0.001598,0.002467,-27.0,9.37,-29.0,2b
2019-07-15_162944:340,-0.17385899999999999,-0.027435,-0.46875,-0.0028399999999999996,-0.001598,0.002833,-25.5,9.37,-30.18,2b
2019-07-15_162944:360,-0.171844,-0.028442000000000002,-0.470276,-0.0029010000000000004,-0.001446,0.00323,-25.5,9.37,-30.18,2b
2019-07-15_162944:380,-0.171844,-0.028442000000000002,-0.47079499999999996,-0.0033280000000000002,-0.001446,0.0031079999999999997,-25.75,9.75,-30.559998999999998,2b
2019-07-15_162944:400,-0.176422,-0.028961,-0.46823100000000006,-0.003725,-0.001263,0.003078,-25.75,9.75,-30.559998999999998,2b
2019-07-15_162944:420,-0.17337,-0.032013,-0.471283,-0.003542,-0.000225,0.003078,-25.75,9.75,-30.559998999999998,2b
2019-07-15_162944:440,-0.17385899999999999,-0.032532,-0.470276,-0.0038469999999999997,-0.000103,0.00265,-27.0,9.75,-30.18,2b
2019-07-15_162944:460,-0.175903,-0.032013,-0.47180200000000005,-0.003725,0.000294,0.002315,-27.0,9.75,-30.18,2b
2019-07-15_162944:480,-0.172852,-0.031006,-0.469757,-0.003389,0.000172,0.002376,-25.75,9.0,-27.75,2b
2019-07-15_162944:500,-0.175903,-0.030487,-0.46926899999999994,-0.003145,0.000172,0.0024059999999999997,-25.75,9.0,-27.75,2b
2019-07-15_162944:520,-0.17538499999999999,-0.029968,-0.466217,-0.003084,0.0007509999999999999,0.002315,-25.75,9.0,-27.75,2b
2019-07-15_162944:540,-0.17690999999999998,-0.029968,-0.466217,-0.0033280000000000002,0.000446,0.0021920000000000004,-25.75,9.75,-29.0,2b
2019-07-15_162944:560,-0.170807,-0.029480000000000003,-0.46417200000000003,-0.003206,0.000294,0.002467,-25.75,9.75,-29.0,2b
2019-07-15_162944:580,-0.170319,-0.029968,-0.465179,-0.0036030000000000003,-0.00034700000000000003,0.001796,-26.18,10.06,-29.370001000000002,2b
2019-07-15_162944:600,-0.174377,-0.027435,-0.467224,-0.0034799999999999996,-0.0006219999999999999,0.001521,-26.18,10.06,-29.370001000000002,2b
2019-07-15_162944:620,-0.17538499999999999,-0.028442000000000002,-0.46926899999999994,-0.003725,-0.0007440000000000001,0.001918,-26.18,10.06,-29.370001000000002,2b
2019-07-15_162944:640,-0.17385899999999999,-0.029968,-0.469757,-0.0034799999999999996,-0.000439,0.002009,-26.559998999999998,8.56,-29.370001000000002,2b
2019-07-15_162944:660,-0.17385899999999999,-0.031006,-0.469757,-0.00345,-0.000225,0.001674,-26.559998999999998,8.56,-29.370001000000002,2b
2019-07-15_162944:680,-0.174377,-0.031006,-0.467743,-0.0029010000000000004,-4.2e-05,0.0016129999999999999,-26.559998999999998,9.37,-31.0,2b
2019-07-15_162944:700,-0.174377,-0.030487,-0.46823100000000006,-0.00229,0.000629,0.001796,-26.559998999999998,9.37,-31.0,2b
2019-07-15_162944:720,-0.17538499999999999,-0.029480000000000003,-0.467743,-0.002168,0.000294,0.002254,-26.559998999999998,9.37,-31.0,2b
2019-07-15_162944:740,-0.17385899999999999,-0.027435,-0.467743,-0.002107,0.0005679999999999999,0.002315,-26.18,9.75,-29.75,2b
2019-07-15_162944:760,-0.174896,-0.026427999999999997,-0.466217,-0.0023510000000000002,0.000294,0.002376,-26.18,9.75,-29.75,2b
2019-07-15_162944:780,-0.17690999999999998,-0.025908999999999998,-0.46670500000000004,-0.002687,0.00011100000000000001,0.002589,-26.559998999999998,9.37,-27.0,2b
2019-07-15_162944:800,-0.17843599999999998,-0.027435,-0.46670500000000004,-0.0033280000000000002,0.00011100000000000001,0.002833,-26.559998999999998,9.37,-27.0,2b
2019-07-15_162944:820,-0.174377,-0.028442000000000002,-0.46469099999999997,-0.003664,1.9e-05,0.002589,-26.559998999999998,9.37,-27.0,2b
2019-07-15_162944:840,-0.17538499999999999,-0.028961,-0.46417200000000003,-0.004121,-0.000225,0.0024059999999999997,-25.75,9.37,-28.18,2b
2019-07-15_162944:860,-0.174896,-0.028961,-0.46469099999999997,-0.003999,-0.00034700000000000003,0.0025280000000000003,-25.75,9.37,-28.18,2b
2019-07-15_162944:880,-0.177948,-0.03302,-0.46670500000000004,-0.0036030000000000003,-0.00037799999999999997,0.002376,-27.25,9.37,-30.18,2b
2019-07-15_162944:900,-0.177948,-0.032532,-0.46670500000000004,-0.0032670000000000004,-0.0005610000000000001,0.002131,-27.25,9.37,-30.18,2b
2019-07-15_162944:920,-0.17843599999999998,-0.031006,-0.46569799999999995,-0.002779,-0.00034700000000000003,0.001918,-27.25,9.37,-30.18,2b
2019-07-15_162944:940,-0.177948,-0.030487,-0.467224,-0.0025039999999999997,-0.00034700000000000003,0.001582,-27.0,9.75,-29.370001000000002,2b
2019-07-15_162944:960,-0.176422,-0.028961,-0.465179,-0.002382,-0.000225,0.001674,-27.0,9.75,-29.370001000000002,2b
2019-07-15_162944:980,-0.175903,-0.028442000000000002,-0.46569799999999995,-0.002443,-0.000439,0.001918,-27.0,9.37,-28.559998999999998,2b
2019-07-15_162945:000,-0.172852,-0.026917,-0.465179,-0.002443,-0.000897,0.001918,-27.0,9.37,-28.559998999999998,2b
2019-07-15_162945:020,-0.17337,-0.027435,-0.46569799999999995,-0.0029010000000000004,-0.001202,0.00207,-27.0,9.37,-28.559998999999998,2b
2019-07-15_162945:040,-0.17385899999999999,-0.026917,-0.46469099999999997,-0.003114,-0.00172,0.002254,-26.559998999999998,9.37,-29.0,2b
2019-07-15_162945:060,-0.175903,-0.027954000000000003,-0.46569799999999995,-0.003114,-0.001843,0.0024059999999999997,-26.559998999999998,9.37,-29.0,2b
2019-07-15_162945:080,-0.177429,-0.028442000000000002,-0.46670500000000004,-0.0032670000000000004,-0.001843,0.0025280000000000003,-26.559998999999998,9.37,-29.370001000000002,2b
2019-07-15_162945:100,-0.175903,-0.027954000000000003,-0.467743,-0.0033280000000000002,-0.00172,0.00265,-26.559998999999998,9.37,-29.370001000000002,2b
2019-07-15_162945:120,-0.176422,-0.027954000000000003,-0.467743,-0.003389,-0.001537,0.0027719999999999997,-26.559998999999998,9.37,-29.370001000000002,2b
2019-07-15_162945:140,-0.174377,-0.029480000000000003,-0.467224,-0.00345,-0.001598,0.00265,-27.0,9.0,-29.0,2b
2019-07-15_162945:160,-0.17690999999999998,-0.029480000000000003,-0.467224,-0.0032670000000000004,-0.0014759999999999999,0.002467,-27.0,9.0,-29.0,2b
2019-07-15_162945:180,-0.177429,-0.030487,-0.46823100000000006,-0.003114,-0.001141,0.002467,-27.25,9.75,-29.370001000000002,2b
2019-07-15_162945:200,-0.177948,-0.030487,-0.46875,-0.003084,-0.000683,0.002742,-27.25,9.75,-29.370001000000002,2b
2019-07-15_162945:220,-0.175903,-0.029480000000000003,-0.467224,-0.003145,-0.000897,0.002711,-27.25,9.75,-29.370001000000002,2b
2019-07-15_162945:240,-0.17538499999999999,-0.028442000000000002,-0.467224,-0.00345,-0.000958,0.003016,-27.0,9.75,-28.559998999999998,2b
2019-07-15_162945:260,-0.17538499999999999,-0.028442000000000002,-0.463654,-0.0033280000000000002,-0.000958,0.0028940000000000003,-27.0,9.75,-28.559998999999998,2b
2019-07-15_162945:280,-0.170319,-0.028442000000000002,-0.46569799999999995,-0.003725,-0.001263,0.002254,-25.5,9.75,-29.370001000000002,2b
2019-07-15_162945:300,-0.174377,-0.028442000000000002,-0.46670500000000004,-0.0038469999999999997,-0.001202,0.002315,-25.5,9.75,-29.370001000000002,2b
2019-07-15_162945:320,-0.170807,-0.028961,-0.467743,-0.003725,-0.001385,0.0028940000000000003,-25.5,9.75,-29.370001000000002,2b
2019-07-15_162945:340,-0.17385899999999999,-0.030487,-0.46926899999999994,-0.003664,-0.001843,0.002711,-26.18,9.75,-29.0,2b
2019-07-15_162945:360,-0.17843599999999998,-0.030487,-0.46823100000000006,-0.0034799999999999996,-0.00172,0.0024059999999999997,-26.18,9.75,-29.0,2b
2019-07-15_162945:380,-0.174896,-0.029968,-0.467743,-0.003114,-0.001141,0.00265,-26.559998999999998,9.37,-29.370001000000002,2b
2019-07-15_162945:400,-0.17538499999999999,-0.029968,-0.46875,-0.0025039999999999997,-0.00108,0.0027719999999999997,-26.559998999999998,9.37,-29.370001000000002,2b
2019-07-15_162945:420,-0.17385899999999999,-0.029480000000000003,-0.46875,-0.002443,-0.0007740000000000001,0.002833,-26.559998999999998,9.37,-29.370001000000002,2b
2019-07-15_162945:440,-0.176422,-0.029480000000000003,-0.46823100000000006,-0.002107,-0.0007740000000000001,0.0024059999999999997,-27.0,9.0,-29.0,2b
2019-07-15_162945:460,-0.17538499999999999,-0.027954000000000003,-0.467743,-0.002046,-0.0006219999999999999,0.002376,-27.0,9.0,-29.0,2b
2019-07-15_162945:480,-0.177429,-0.027954000000000003,-0.46823100000000006,-0.002382,-0.0007440000000000001,0.002711,-26.559998999999998,9.75,-29.370001000000002,2b
2019-07-15_162945:500,-0.17538499999999999,-0.027435,-0.467224,-0.002382,-0.0007740000000000001,0.002711,-26.559998999999998,9.75,-29.370001000000002,2b
2019-07-15_162945:520,-0.177429,-0.027435,-0.465179,-0.003206,-0.0005610000000000001,0.002467,-26.559998999999998,9.75,-29.370001000000002,2b
2019-07-15_162945:540,-0.176422,-0.027954000000000003,-0.466217,-0.003114,-0.0005,0.0025280000000000003,-26.559998999999998,9.75,-29.75,2b
2019-07-15_162945:560,-0.174896,-0.029480000000000003,-0.46417200000000003,-0.0034799999999999996,-0.000439,0.002955,-26.559998999999998,9.75,-29.75,2b
2019-07-15_162945:580,-0.174377,-0.029968,-0.467224,-0.003725,-0.000439,0.003078,-27.25,9.37,-28.18,2b
2019-07-15_162945:600,-0.172852,-0.031006,-0.466217,-0.003786,-0.000897,0.0031079999999999997,-27.25,9.37,-28.18,2b
2019-07-15_162945:620,-0.174377,-0.031494,-0.465179,-0.0038469999999999997,-0.001202,0.002955,-27.25,9.37,-28.18,2b
2019-07-15_162945:640,-0.17337,-0.032013,-0.465179,-0.003725,-0.001263,0.00265,-26.559998999999998,9.37,-29.0,2b
2019-07-15_162945:660,-0.174377,-0.029480000000000003,-0.46469099999999997,-0.0034799999999999996,-0.001385,0.002711,-26.559998999999998,9.37,-29.0,2b
2019-07-15_162945:680,-0.17337,-0.029480000000000003,-0.467224,-0.0033280000000000002,-0.001446,0.00265,-27.0,9.0,-29.370001000000002,2b
2019-07-15_162945:700,-0.172852,-0.028442000000000002,-0.467743,-0.0033280000000000002,-0.00172,0.0024059999999999997,-27.0,9.0,-29.370001000000002,2b
2019-07-15_162945:720,-0.174896,-0.027954000000000003,-0.467743,-0.0033280000000000002,-0.001995,0.0025280000000000003,-27.0,9.0,-29.370001000000002,2b
2019-07-15_162945:740,-0.176422,-0.029968,-0.469757,-0.0033280000000000002,-0.001873,0.0025280000000000003,-31.0,9.75,-31.0,2b
2019-07-15_162945:760,-0.174896,-0.029968,-0.467743,-0.0033280000000000002,-0.00172,0.002254,-31.0,9.75,-31.0,2b
2019-07-15_162945:780,-0.172852,-0.028961,-0.46823100000000006,-0.002779,-0.001537,0.002467,-25.5,9.75,-28.559998999999998,2b
2019-07-15_162945:800,-0.172333,-0.028442000000000002,-0.46926899999999994,-0.002687,-0.001537,0.00265,-25.5,9.75,-28.559998999999998,2b
2019-07-15_162945:820,-0.171844,-0.027954000000000003,-0.46875,-0.002687,-0.001598,0.00265,-25.5,9.75,-28.559998999999998,2b
2019-07-15_162945:840,-0.171844,-0.027435,-0.471283,-0.002565,-0.0014759999999999999,0.002742,-26.559998999999998,9.37,-29.0,2b
2019-07-15_162945:860,-0.171844,-0.026917,-0.46823100000000006,-0.0029620000000000002,-0.001263,0.003078,-26.559998999999998,9.37,-29.0,2b
2019-07-15_162945:880,-0.17385899999999999,-0.027954000000000003,-0.46926899999999994,-0.003206,-0.001324,0.00323,-26.559998999999998,9.37,-29.0,2b
2019-07-15_162945:900,-0.174896,-0.028961,-0.46823100000000006,-0.003664,-0.001202,0.0033520000000000004,-27.0,9.75,-29.370001000000002,2b
2019-07-15_162945:920,-0.174896,-0.028961,-0.46823100000000006,-0.003725,-0.001019,0.003871,-27.0,9.75,-29.370001000000002,2b
2019-07-15_162945:940,-0.170807,-0.029480000000000003,-0.46875,-0.0038469999999999997,-0.0007740000000000001,0.0034130000000000002,-26.18,9.0,-30.18,2b
2019-07-15_162945:960,-0.172333,-0.027954000000000003,-0.46823100000000006,-0.0039380000000000005,-0.0006219999999999999,0.003078,-26.18,9.0,-30.18,2b
2019-07-15_162945:980,-0.171844,-0.030487,-0.470276,-0.00406,-0.0005610000000000001,0.003749,-26.18,9.0,-30.18,2b
2019-07-15_162946:000,-0.17385899999999999,-0.03302,-0.469757,-0.00406,-0.000683,0.003901,-26.18,9.0,-29.370001000000002,2b
2019-07-15_162946:020,-0.17538499999999999,-0.033539,-0.470276,-0.003664,-0.000439,0.0034130000000000002,-26.18,9.0,-29.370001000000002,2b
2019-07-15_162946:040,-0.17385899999999999,-0.032532,-0.467743,-0.003023,5e-05,0.003505,-26.18,9.37,-29.75,2b
2019-07-15_162946:060,-0.172852,-0.032013,-0.46569799999999995,-0.0025039999999999997,0.00038500000000000003,0.0036880000000000003,-26.18,9.37,-29.75,2b
2019-07-15_162946:080,-0.171844,-0.029968,-0.466217,-0.002382,1.9e-05,0.0035659999999999997,-26.18,9.37,-29.75,2b
2019-07-15_162946:100,-0.171844,-0.029480000000000003,-0.46569799999999995,-0.002779,-0.000225,0.0031079999999999997,-26.18,10.37,-29.370001000000002,2b
2019-07-15_162946:120,-0.176422,-0.031006,-0.46417200000000003,-0.003114,-0.0006219999999999999,0.002589,-26.18,10.37,-29.370001000000002,2b
2019-07-15_162946:140,-0.177948,-0.029968,-0.466217,-0.003389,-0.0008349999999999999,0.002315,-26.559998999999998,9.37,-29.75,2b
2019-07-15_162946:160,-0.174377,-0.032532,-0.463654,-0.003542,-0.000683,0.0021920000000000004,-26.559998999999998,9.37,-29.75,2b
2019-07-15_162946:180,-0.17538499999999999,-0.032013,-0.46569799999999995,-0.003145,-0.000958,0.001796,-26.559998999999998,9.37,-29.75,2b
2019-07-15_162946:200,-0.175903,-0.03302,-0.466217,-0.003145,-0.001263,0.002009,-26.18,9.75,-29.370001000000002,2b
2019-07-15_162946:220,-0.17385899999999999,-0.030487,-0.466217,-0.0029010000000000004,-0.0014759999999999999,0.0017350000000000002,-26.18,9.75,-29.370001000000002,2b
2019-07-15_162946:240,-0.17385899999999999,-0.028961,-0.467743,-0.003084,-0.001446,0.001796,-25.75,9.37,-29.0,2b
2019-07-15_162946:260,-0.172333,-0.026917,-0.467743,-0.003023,-0.0016589999999999999,0.00207,-25.75,9.37,-29.0,2b
2019-07-15_162946:280,-0.172852,-0.027954000000000003,-0.467224,-0.003084,-0.001598,0.0024059999999999997,-25.75,9.37,-29.0,2b
2019-07-15_162946:300,-0.172333,-0.028442000000000002,-0.46875,-0.003114,-0.00172,0.00265,-26.18,10.06,-29.75,2b
2019-07-15_162946:320,-0.170807,-0.028442000000000002,-0.467743,-0.003145,-0.00172,0.002742,-26.18,10.06,-29.75,2b
2019-07-15_162946:340,-0.1698,-0.029480000000000003,-0.469757,-0.003145,-0.002239,0.0028940000000000003,-25.75,9.75,-29.0,2b
2019-07-15_162946:360,-0.172333,-0.029968,-0.46823100000000006,-0.003206,-0.0023309999999999997,0.002833,-25.75,9.75,-29.0,2b
2019-07-15_162946:380,-0.174377,-0.029480000000000003,-0.470276,-0.003114,-0.001782,0.002742,-25.75,9.75,-29.0,2b
2019-07-15_162946:400,-0.17385899999999999,-0.028442000000000002,-0.46926899999999994,-0.003145,-0.001782,0.0031079999999999997,-26.18,9.75,-29.370001000000002,2b
2019-07-15_162946:420,-0.174377,-0.029968,-0.469757,-0.003206,-0.0014759999999999999,0.003169,-26.18,9.75,-29.370001000000002,2b
2019-07-15_162946:440,-0.169281,-0.031006,-0.470276,-0.003542,-0.001263,0.002742,-26.18,9.37,-30.559998999999998,2b
2019-07-15_162946:460,-0.172333,-0.03302,-0.46875,-0.0036030000000000003,-0.001598,0.002376,-26.18,9.37,-30.559998999999998,2b
2019-07-15_162946:480,-0.171844,-0.03302,-0.46875,-0.0033280000000000002,-0.001324,0.0021920000000000004,-26.18,9.37,-30.559998999999998,2b
2019-07-15_162946:500,-0.171844,-0.030487,-0.46875,-0.0033280000000000002,-0.001019,0.002254,-26.559998999999998,9.75,-29.0,2b
2019-07-15_162946:520,-0.171844,-0.031006,-0.46823100000000006,-0.003023,-0.001019,0.0024059999999999997,-26.559998999999998,9.75,-29.0,2b
2019-07-15_162946:540,-0.174377,-0.031006,-0.469757,-0.0029620000000000002,-0.0011099999999999999,0.001796,-26.559998999999998,10.06,-31.0,2b
2019-07-15_162946:560,-0.17944300000000002,-0.031006,-0.467743,-0.002687,-0.001324,0.001399,-26.559998999999998,10.06,-31.0,2b
2019-07-15_162946:580,-0.178955,-0.028442000000000002,-0.466217,-0.0029620000000000002,-0.0005,0.001338,-26.559998999999998,10.06,-31.0,2b
2019-07-15_162946:600,-0.167755,-0.027954000000000003,-0.463654,-0.0029010000000000004,-0.000439,0.000789,-26.559998999999998,9.75,-30.18,2b
2019-07-15_162946:620,-0.167755,-0.026427999999999997,-0.465179,-0.003114,-0.000897,0.000484,-26.559998999999998,9.75,-30.18,2b
2019-07-15_162946:640,-0.166229,-0.026427999999999997,-0.467743,-0.0033280000000000002,-0.001537,0.001399,-25.75,9.37,-29.370001000000002,2b
2019-07-15_162946:660,-0.168793,-0.027954000000000003,-0.46670500000000004,-0.0029620000000000002,-0.001843,0.001521,-25.75,9.37,-29.370001000000002,2b
2019-07-15_162946:680,-0.171844,-0.029480000000000003,-0.46823100000000006,-0.002779,-0.001934,0.001399,-25.75,9.37,-29.370001000000002,2b
2019-07-15_162946:700,-0.171326,-0.027954000000000003,-0.469757,-0.0025039999999999997,-0.0014759999999999999,0.002009,-27.0,8.56,-29.75,2b
2019-07-15_162946:720,-0.171844,-0.027954000000000003,-0.46926899999999994,-0.002229,-0.001446,0.0027719999999999997,-27.0,8.56,-29.75,2b
2019-07-15_162946:740,-0.171326,-0.026917,-0.470276,-0.002382,-0.001446,0.0028940000000000003,-25.75,9.75,-30.18,2b
2019-07-15_162946:760,-0.170807,-0.024902,-0.470276,-0.002443,-0.001263,0.0032909999999999997,-25.75,9.75,-30.18,2b
2019-07-15_162946:780,-0.172333,-0.026917,-0.46926899999999994,-0.0029010000000000004,-0.000897,0.0036270000000000004,-25.75,9.75,-30.18,2b
2019-07-15_162946:800,-0.171326,-0.026917,-0.470276,-0.003206,-0.0011099999999999999,0.003901,-26.559998999999998,9.0,-29.370001000000002,2b
2019-07-15_162946:820,-0.168793,-0.028961,-0.467743,-0.003786,-0.001385,0.0042369999999999994,-26.559998999999998,9.0,-29.370001000000002,2b
2019-07-15_162946:840,-0.1698,-0.029968,-0.469757,-0.003999,-0.0011099999999999999,0.00442,-26.559998999999998,9.75,-29.0,2b
2019-07-15_162946:860,-0.171844,-0.030487,-0.46823100000000006,-0.00406,-0.001324,0.004359,-26.559998999999998,9.75,-29.0,2b
2019-07-15_162946:880,-0.170319,-0.032532,-0.46926899999999994,-0.0039380000000000005,-0.001019,0.004359,-26.559998999999998,9.75,-29.0,2b
2019-07-15_162946:900,-0.171326,-0.03302,-0.47079499999999996,-0.00406,-0.0011099999999999999,0.004024,-26.559998999999998,10.37,-29.75,2b
2019-07-15_162946:920,-0.170807,-0.03302,-0.46926899999999994,-0.0039380000000000005,-0.0007440000000000001,0.0036270000000000004,-26.559998999999998,10.37,-29.75,2b
2019-07-15_162946:940,-0.170319,-0.034546,-0.46926899999999994,-0.003664,-0.000897,0.003474,-26.18,9.0,-30.18,2b
2019-07-15_162946:960,-0.170319,-0.034546,-0.467743,-0.0033280000000000002,-0.00108,0.0027719999999999997,-26.18,9.0,-30.18,2b
2019-07-15_162946:980,-0.1698,-0.033539,-0.467743,-0.003114,-0.001141,0.00265,-26.18,9.0,-30.18,2b
2019-07-15_162947:000,-0.171844,-0.032532,-0.46823100000000006,-0.002565,-0.001202,0.00265,-25.75,9.75,-29.0,2b
2019-07-15_162947:020,-0.171844,-0.032013,-0.470276,-0.0023510000000000002,-0.000683,0.0024059999999999997,-25.75,9.75,-29.0,2b
2019-07-15_162947:040,-0.169281,-0.028442000000000002,-0.47180200000000005,-0.002168,-0.000683,0.0027719999999999997,-25.5,9.75,-29.75,2b
2019-07-15_162947:060,-0.1698,-0.028961,-0.469757,-0.0025039999999999997,-0.0007740000000000001,0.002833,-25.5,9.75,-29.75,2b
2019-07-15_162947:080,-0.171844,-0.029968,-0.470276,-0.003023,-0.0008349999999999999,0.002742,-25.5,9.75,-29.75,2b
2019-07-15_162947:100,-0.169281,-0.029480000000000003,-0.46875,-0.003114,-0.0007440000000000001,0.002742,-25.75,10.06,-29.0,2b
2019-07-15_162947:120,-0.169281,-0.031006,-0.466217,-0.0032670000000000004,-0.0006219999999999999,0.002955,-25.75,10.06,-29.0,2b
2019-07-15_162947:140,-0.171326,-0.031494,-0.469757,-0.0032670000000000004,-0.0005610000000000001,0.0032909999999999997,-26.18,10.06,-31.370001000000002,2b
2019-07-15_162947:160,-0.170807,-0.031494,-0.46926899999999994,-0.003145,-0.000683,0.0032909999999999997,-26.18,10.06,-31.370001000000002,2b
2019-07-15_162947:180,-0.171326,-0.032013,-0.469757,-0.0033280000000000002,-0.0007740000000000001,0.003016,-26.18,10.06,-31.370001000000002,2b
2019-07-15_162947:200,-0.172333,-0.031494,-0.467743,-0.0033280000000000002,-0.0007440000000000001,0.0032909999999999997,-26.559998999999998,10.06,-29.370001000000002,2b
2019-07-15_162947:220,-0.172333,-0.032013,-0.467224,-0.0033280000000000002,-0.0006219999999999999,0.0028940000000000003,-26.559998999999998,10.06,-29.370001000000002,2b
2019-07-15_162947:240,-0.172333,-0.031006,-0.467224,-0.0032670000000000004,-0.00037799999999999997,0.002833,-19.559998999999998,9.75,-29.75,2b
2019-07-15_162947:260,-0.172333,-0.031006,-0.467224,-0.0032670000000000004,-0.000286,0.0031079999999999997,-19.559998999999998,9.75,-29.75,2b
2019-07-15_162947:280,-0.165741,-0.030487,-0.469757,-0.003389,-0.0005,0.0024059999999999997,-19.559998999999998,9.75,-29.75,2b
2019-07-15_162947:300,-0.1698,-0.028961,-0.469757,-0.0033280000000000002,-0.0007740000000000001,0.0025280000000000003,-25.75,9.75,-30.18,2b
2019-07-15_162947:320,-0.169281,-0.031494,-0.46926899999999994,-0.00345,-0.001202,0.003505,-25.75,9.75,-30.18,2b
2019-07-15_162947:340,-0.17337,-0.031494,-0.470276,-0.003725,-0.001141,0.002711,-25.75,9.75,-29.75,2b
2019-07-15_162947:360,-0.172852,-0.031494,-0.46823100000000006,-0.00345,-0.0006219999999999999,0.002742,-25.75,9.75,-29.75,2b
2019-07-15_162947:380,-0.170807,-0.032532,-0.469757,-0.003084,-0.00034700000000000003,0.0032909999999999997,-25.75,9.75,-29.75,2b
2019-07-15_162947:400,-0.170807,-0.032013,-0.469757,-0.0028399999999999996,-0.000164,0.00323,-26.18,10.37,-29.370001000000002,2b
2019-07-15_162947:420,-0.170807,-0.031006,-0.467743,-0.0028399999999999996,-4.2e-05,0.0032909999999999997,-26.18,10.37,-29.370001000000002,2b
2019-07-15_162947:440,-0.172333,-0.031006,-0.467743,-0.0028399999999999996,-0.000225,0.0031079999999999997,-26.559998999999998,9.75,-29.370001000000002,2b
2019-07-15_162947:460,-0.172333,-0.029480000000000003,-0.467224,-0.003084,-0.00037799999999999997,0.0028940000000000003,-26.559998999999998,9.75,-29.370001000000002,2b
2019-07-15_162947:480,-0.172852,-0.032532,-0.467224,-0.0034799999999999996,-0.0005610000000000001,0.003169,-26.559998999999998,9.75,-29.370001000000002,2b
2019-07-15_162947:500,-0.171844,-0.034058,-0.46417200000000003,-0.003664,-0.000439,0.003016,-25.75,10.06,-30.18,2b
2019-07-15_162947:520,-0.169281,-0.034058,-0.46670500000000004,-0.0032670000000000004,-0.0005610000000000001,0.002254,-25.75,10.06,-30.18,2b
2019-07-15_162947:540,-0.1698,-0.033539,-0.46569799999999995,-0.0029620000000000002,-0.001141,0.002315,-26.18,9.37,-27.75,2b
2019-07-15_162947:560,-0.168274,-0.032013,-0.466217,-0.002779,-0.0016589999999999999,0.002711,-26.18,9.37,-27.75,2b
2019-07-15_162947:580,-0.169281,-0.030487,-0.46823100000000006,-0.002779,-0.001782,0.002742,-26.18,9.37,-27.75,2b
2019-07-15_162947:600,-0.172333,-0.031006,-0.467743,-0.0029010000000000004,-0.002392,0.00265,-27.0,9.75,-30.559998999999998,2b
2019-07-15_162947:620,-0.17538499999999999,-0.032013,-0.46823100000000006,-0.0029010000000000004,-0.0023309999999999997,0.002467,-27.0,9.75,-30.559998999999998,2b
2019-07-15_162947:640,-0.172333,-0.031494,-0.46926899999999994,-0.0029620000000000002,-0.001873,0.002376,-26.559998999999998,10.06,-29.370001000000002,2b
2019-07-15_162947:660,-0.170807,-0.031006,-0.46926899999999994,-0.003084,-0.0014759999999999999,0.002467,-26.559998999999998,10.06,-29.370001000000002,2b
2019-07-15_162947:680,-0.168793,-0.030487,-0.469757,-0.003084,-0.0014759999999999999,0.0025280000000000003,-26.559998999999998,10.06,-29.370001000000002,2b
2019-07-15_162947:700,-0.168793,-0.031494,-0.469757,-0.003389,-0.00172,0.002742,-25.75,10.06,-29.75,2b
2019-07-15_162947:720,-0.169281,-0.031006,-0.471283,-0.00345,-0.001537,0.002589,-25.75,10.06,-29.75,2b
2019-07-15_162947:740,-0.169281,-0.031006,-0.470276,-0.003145,-0.001446,0.0027719999999999997,-26.18,9.37,-29.370001000000002,2b
2019-07-15_162947:760,-0.171326,-0.032532,-0.469757,-0.00345,-0.001263,0.002833,-26.18,9.37,-29.370001000000002,2b
2019-07-15_162947:780,-0.168793,-0.032013,-0.47079499999999996,-0.003389,-0.001141,0.002955,-26.18,9.37,-29.370001000000002,2b
2019-07-15_162947:800,-0.166229,-0.031494,-0.470276,-0.003389,-0.0011099999999999999,0.0028940000000000003,-32.75,9.0,-29.370001000000002,2b
2019-07-15_162947:820,-0.167755,-0.032532,-0.46926899999999994,-0.003084,-0.001141,0.002955,-32.75,9.0,-29.370001000000002,2b
2019-07-15_162947:840,-0.168793,-0.031494,-0.469757,-0.003084,-0.001324,0.003016,-25.75,9.0,-30.18,2b
2019-07-15_162947:860,-0.169281,-0.031494,-0.46875,-0.003023,-0.001263,0.0031079999999999997,-25.75,9.0,-30.18,2b
2019-07-15_162947:880,-0.168274,-0.031006,-0.46875,-0.003023,-0.001202,0.0032909999999999997,-25.75,9.0,-30.18,2b
2019-07-15_162947:900,-0.172852,-0.032532,-0.46926899999999994,-0.003206,-0.001446,0.0031079999999999997,-27.0,9.37,-29.370001000000002,2b
2019-07-15_162947:920,-0.17385899999999999,-0.029968,-0.46926899999999994,-0.003206,-0.0011099999999999999,0.003169,-27.0,9.37,-29.370001000000002,2b
2019-07-15_162947:940,-0.171326,-0.031494,-0.46926899999999994,-0.003389,-0.0011099999999999999,0.0035659999999999997,-26.559998999999998,9.0,-30.18,2b
2019-07-15_162947:960,-0.165741,-0.031494,-0.46670500000000004,-0.003786,-0.00108,0.002742,-26.559998999999998,9.0,-30.18,2b
2019-07-15_162947:980,-0.168274,-0.031494,-0.47079499999999996,-0.0038770000000000002,-0.000958,0.002254,-26.559998999999998,9.0,-30.18,2b
2019-07-15_162948:000,-0.166229,-0.034058,-0.470276,-0.00406,-0.00108,0.002742,-25.5,9.75,-30.18,2b
2019-07-15_162948:020,-0.168793,-0.036072,-0.47180200000000005,-0.0039380000000000005,-0.001141,0.002131,-25.5,9.75,-30.18,2b
2019-07-15_162948:040,-0.1698,-0.036591000000000005,-0.47079499999999996,-0.003389,-0.0011099999999999999,0.0017350000000000002,-25.5,10.06,-29.0,2b
2019-07-15_162948:060,-0.170319,-0.036072,-0.46926899999999994,-0.002779,-0.000897,0.001796,-25.5,10.06,-29.0,2b
2019-07-15_162948:080,-0.1698,-0.032532,-0.46926899999999994,-0.002168,-0.000439,0.0017350000000000002,-25.5,10.06,-29.0,2b
2019-07-15_162948:100,-0.168793,-0.031006,-0.46926899999999994,-0.0016489999999999999,-0.00034700000000000003,0.001796,-26.18,9.37,-29.370001000000002,2b
2019-07-15_162948:120,-0.166748,-0.027954000000000003,-0.46823100000000006,-0.001955,-0.0006219999999999999,0.001918,-26.18,9.37,-29.370001000000002,2b
2019-07-15_162948:140,-0.167755,-0.026427999999999997,-0.469757,-0.002443,-0.0007740000000000001,0.002131,-26.18,9.75,-30.18,2b
2019-07-15_162948:160,-0.172852,-0.027954000000000003,-0.46875,-0.003114,-0.001019,0.002376,-26.18,9.75,-30.18,2b
2019-07-15_162948:180,-0.169281,-0.028961,-0.467743,-0.003542,-0.0006219999999999999,0.002833,-26.18,9.75,-30.18,2b
2019-07-15_162948:200,-0.168793,-0.029968,-0.467743,-0.0038469999999999997,-0.0007740000000000001,0.002833,-26.18,9.75,-30.559998999999998,2b
2019-07-15_162948:220,-0.170807,-0.031494,-0.46875,-0.004243,-0.001202,0.0031079999999999997,-26.18,9.75,-30.559998999999998,2b
2019-07-15_162948:240,-0.168793,-0.032532,-0.470276,-0.004182,-0.001202,0.003169,-27.0,9.37,-30.18,2b
2019-07-15_162948:260,-0.168793,-0.032532,-0.467743,-0.004182,-0.001202,0.002833,-27.0,9.37,-30.18,2b
2019-07-15_162948:280,-0.168793,-0.032013,-0.46875,-0.00406,-0.001385,0.0028940000000000003,-27.0,9.37,-30.18,2b
2019-07-15_162948:300,-0.168793,-0.034058,-0.46875,-0.0036030000000000003,-0.001385,0.003016,-25.5,10.06,-30.18,2b
2019-07-15_162948:320,-0.169281,-0.032532,-0.470276,-0.00345,-0.001446,0.002589,-25.5,10.06,-30.18,2b
2019-07-15_162948:340,-0.166748,-0.032013,-0.47079499999999996,-0.003206,-0.001385,0.002711,-25.059998999999998,9.75,-29.370001000000002,2b
2019-07-15_162948:360,-0.1698,-0.031006,-0.46926899999999994,-0.003114,-0.001446,0.0025280000000000003,-25.059998999999998,9.75,-29.370001000000002,2b
2019-07-15_162948:380,-0.168274,-0.029968,-0.470276,-0.0028399999999999996,-0.001446,0.002467,-25.059998999999998,9.75,-29.370001000000002,2b
2019-07-15_162948:400,-0.167755,-0.028442000000000002,-0.469757,-0.003023,-0.001446,0.0024059999999999997,-25.75,10.37,-30.18,2b
2019-07-15_162948:420,-0.167267,-0.029480000000000003,-0.470276,-0.003114,-0.001385,0.00265,-25.75,10.37,-30.18,2b
2019-07-15_162948:440,-0.167755,-0.029480000000000003,-0.471283,-0.003114,-0.001324,0.002711,-25.75,9.75,-29.75,2b
2019-07-15_162948:460,-0.1698,-0.029480000000000003,-0.47079499999999996,-0.003206,-0.00108,0.003078,-25.75,9.75,-29.75,2b
2019-07-15_162948:480,-0.168793,-0.029968,-0.472321,-0.0033280000000000002,-0.001019,0.0031079999999999997,-25.75,9.75,-29.75,2b
2019-07-15_162948:500,-0.167755,-0.028961,-0.472321,-0.0036030000000000003,-0.0005610000000000001,0.003169,-25.75,9.75,-29.370001000000002,2b
2019-07-15_162948:520,-0.168793,-0.032013,-0.469757,-0.003542,-0.0006219999999999999,0.0031079999999999997,-25.75,9.75,-29.370001000000002,2b
2019-07-15_162948:540,-0.167755,-0.032532,-0.470276,-0.003664,-0.000439,0.003169,-26.18,10.37,-29.75,2b
2019-07-15_162948:560,-0.167267,-0.034058,-0.469757,-0.003114,-4.2e-05,0.0031079999999999997,-26.18,10.37,-29.75,2b
2019-07-15_162948:580,-0.167267,-0.032532,-0.470276,-0.003023,-0.000683,0.0027719999999999997,-26.18,10.37,-29.75,2b
2019-07-15_162948:600,-0.165741,-0.032013,-0.469757,-0.002687,-0.0006219999999999999,0.002955,-25.5,9.75,-29.75,2b
2019-07-15_162948:620,-0.170319,-0.032013,-0.46823100000000006,-0.002687,-0.0011099999999999999,0.0031079999999999997,-25.5,9.75,-29.75,2b
2019-07-15_162948:640,-0.167755,-0.032013,-0.46875,-0.0026260000000000003,-0.0008349999999999999,0.002742,-26.18,9.75,-29.0,2b
2019-07-15_162948:660,-0.172333,-0.029968,-0.46823100000000006,-0.002779,-0.0007740000000000001,0.0027719999999999997,-26.18,9.75,-29.0,2b
2019-07-15_162948:680,-0.1698,-0.031494,-0.467743,-0.0029010000000000004,-0.000683,0.0034130000000000002,-26.18,9.75,-29.0,2b
2019-07-15_162948:700,-0.1698,-0.032013,-0.46823100000000006,-0.0033280000000000002,-0.000897,0.0025280000000000003,-26.18,10.06,-30.18,2b
2019-07-15_162948:720,-0.167755,-0.030487,-0.46926899999999994,-0.003664,-0.000897,0.002131,-26.18,10.06,-30.18,2b
2019-07-15_162948:740,-0.168274,-0.029480000000000003,-0.47079499999999996,-0.003664,-0.000958,0.002742,-25.75,9.37,-29.75,2b
2019-07-15_162948:760,-0.166748,-0.035065,-0.469757,-0.0034799999999999996,-0.001141,0.0025280000000000003,-25.75,9.37,-29.75,2b
2019-07-15_162948:780,-0.170807,-0.035065,-0.470276,-0.003084,-0.001019,0.002131,-25.75,9.37,-29.75,2b
2019-07-15_162948:800,-0.168274,-0.034058,-0.472321,-0.0026260000000000003,-0.0007740000000000001,0.0025280000000000003,-26.18,9.75,-30.18,2b
2019-07-15_162948:820,-0.166229,-0.032532,-0.46875,-0.0023510000000000002,-0.0007440000000000001,0.002742,-26.18,9.75,-30.18,2b
2019-07-15_162948:840,-0.168274,-0.032013,-0.46823100000000006,-0.002229,-0.0007740000000000001,0.002833,-26.18,10.06,-29.0,2b
2019-07-15_162948:860,-0.166229,-0.030487,-0.46875,-0.002687,-0.0008349999999999999,0.002742,-26.18,10.06,-29.0,2b
2019-07-15_162948:880,-0.167755,-0.029968,-0.46875,-0.003023,-0.000897,0.002742,-26.18,10.06,-29.0,2b
2019-07-15_162948:900,-0.171844,-0.031006,-0.469757,-0.00345,-0.0007440000000000001,0.002833,-25.75,10.37,-29.75,2b
2019-07-15_162948:920,-0.17385899999999999,-0.031494,-0.46823100000000006,-0.00345,-0.000103,0.003169,-25.75,10.37,-29.75,2b
2019-07-15_162948:940,-0.169281,-0.031494,-0.46875,-0.003542,-0.000286,0.0027719999999999997,-25.75,10.37,-30.18,2b
2019-07-15_162948:960,-0.167755,-0.031494,-0.46926899999999994,-0.003725,-0.0006219999999999999,0.002711,-25.75,10.37,-30.18,2b
2019-07-15_162948:980,-0.167755,-0.03302,-0.469757,-0.0036030000000000003,-0.000958,0.002955,-25.75,10.37,-30.18,2b
2019-07-15_162949:000,-0.168274,-0.033539,-0.46823100000000006,-0.003664,-0.0007440000000000001,0.002833,-25.059998999999998,10.37,-29.0,2b
2019-07-15_162949:020,-0.167267,-0.033539,-0.467743,-0.003664,-0.00108,0.002711,-25.059998999999998,10.37,-29.0,2b
2019-07-15_162949:040,-0.168274,-0.034058,-0.46823100000000006,-0.00345,-0.000958,0.0025280000000000003,-25.5,10.06,-29.0,2b
2019-07-15_162949:060,-0.167267,-0.034058,-0.46875,-0.003145,-0.001202,0.0024059999999999997,-25.5,10.06,-29.0,2b
2019-07-15_162949:080,-0.167267,-0.033539,-0.469757,-0.003023,-0.001446,0.0021920000000000004,-25.5,10.06,-29.0,2b
2019-07-15_162949:100,-0.167267,-0.031494,-0.470276,-0.002779,-0.001263,0.0024059999999999997,-25.059998999999998,9.75,-30.559998999999998,2b
2019-07-15_162949:120,-0.167267,-0.032013,-0.46926899999999994,-0.002779,-0.0016589999999999999,0.002467,-25.059998999999998,9.75,-30.559998999999998,2b
2019-07-15_162949:140,-0.166229,-0.030487,-0.471283,-0.003023,-0.001782,0.002315,-26.559998999999998,9.37,-29.0,2b
2019-07-15_162949:160,-0.166748,-0.031494,-0.471283,-0.0029620000000000002,-0.0016589999999999999,0.002589,-26.559998999999998,9.37,-29.0,2b
2019-07-15_162949:180,-0.1698,-0.031494,-0.47079499999999996,-0.003114,-0.0014759999999999999,0.002589,-26.559998999999998,9.37,-29.0,2b
2019-07-15_162949:200,-0.168274,-0.031006,-0.472321,-0.0029620000000000002,-0.001141,0.0027719999999999997,-25.5,9.75,-29.75,2b
2019-07-15_162949:220,-0.168274,-0.031006,-0.471283,-0.003084,-0.001141,0.003078,-25.5,9.75,-29.75,2b
2019-07-15_162949:240,-0.167267,-0.031006,-0.471283,-0.003084,-0.000958,0.002955,-25.5,10.06,-29.0,2b
2019-07-15_162949:260,-0.167755,-0.031494,-0.472321,-0.0033280000000000002,-0.0008349999999999999,0.0028940000000000003,-25.5,10.06,-29.0,2b
2019-07-15_162949:280,-0.166748,-0.031494,-0.471283,-0.00345,-0.0008349999999999999,0.003078,-25.5,10.06,-29.0,2b
2019-07-15_162949:300,-0.165222,-0.031494,-0.470276,-0.0036030000000000003,-0.00108,0.0031079999999999997,-25.75,9.75,-29.0,2b
2019-07-15_162949:320,-0.168793,-0.032532,-0.46823100000000006,-0.0034799999999999996,-0.0011099999999999999,0.002742,-25.75,9.75,-29.0,2b
2019-07-15_162949:340,-0.167267,-0.033539,-0.46823100000000006,-0.0033280000000000002,-0.00108,0.002711,-26.559998999999998,10.06,-29.0,2b
2019-07-15_162949:360,-0.166748,-0.032013,-0.469757,-0.0032670000000000004,-0.0011099999999999999,0.0028940000000000003,-26.559998999999998,10.06,-29.0,2b
2019-07-15_162949:380,-0.168793,-0.032532,-0.471283,-0.0032670000000000004,-0.0008349999999999999,0.0031079999999999997,-26.559998999999998,10.06,-29.0,2b
2019-07-15_162949:400,-0.168793,-0.030487,-0.47079499999999996,-0.0028399999999999996,-0.0008349999999999999,0.0031079999999999997,-26.559998999999998,10.06,-30.18,2b
2019-07-15_162949:420,-0.167755,-0.032013,-0.470276,-0.003023,-0.001385,0.00323,-26.559998999999998,10.06,-30.18,2b
2019-07-15_162949:440,-0.167267,-0.032013,-0.469757,-0.003023,-0.001202,0.0032909999999999997,-25.75,9.37,-30.18,2b
2019-07-15_162949:460,-0.172333,-0.032013,-0.467743,-0.003145,-0.000958,0.002955,-25.75,9.37,-30.18,2b
2019-07-15_162949:480,-0.167267,-0.029480000000000003,-0.46823100000000006,-0.0034799999999999996,-0.001019,0.00323,-25.75,9.37,-30.18,2b
2019-07-15_162949:500,-0.165741,-0.031006,-0.46875,-0.00345,-0.000958,0.00323,-25.5,10.06,-29.75,2b
2019-07-15_162949:520,-0.16217,-0.032013,-0.46875,-0.00406,-0.0020559999999999997,0.00207,-25.5,10.06,-29.75,2b
2019-07-15_162949:540,-0.166748,-0.031006,-0.472321,-0.003999,-0.001598,0.0025280000000000003,-25.5,10.06,-30.18,2b
2019-07-15_162949:560,-0.165741,-0.035065,-0.472321,-0.0038469999999999997,-0.001843,0.002742,-25.5,10.06,-30.18,2b
2019-07-15_162949:580,-0.1698,-0.034546,-0.473846,-0.0036030000000000003,-0.001537,0.00207,-25.5,10.06,-30.18,2b
2019-07-15_162949:600,-0.167755,-0.034058,-0.47280900000000003,-0.0029010000000000004,-0.0008349999999999999,0.0024059999999999997,-25.75,9.37,-31.370001000000002,2b
2019-07-15_162949:620,-0.166229,-0.032013,-0.469757,-0.0026260000000000003,-0.000683,0.002742,-25.75,9.37,-31.370001000000002,2b
2019-07-15_162949:640,-0.165222,-0.030487,-0.47079499999999996,-0.002687,-0.00037799999999999997,0.003078,-26.559998999999998,9.0,-29.0,2b
2019-07-15_162949:660,-0.165741,-0.031006,-0.47079499999999996,-0.0028399999999999996,-0.000439,0.0027719999999999997,-26.559998999999998,9.0,-29.0,2b
2019-07-15_162949:680,-0.165741,-0.030487,-0.46926899999999994,-0.0033280000000000002,-0.0007440000000000001,0.002467,-26.559998999999998,9.0,-29.0,2b
2019-07-15_162949:700,-0.1698,-0.029968,-0.471283,-0.003145,-0.0007440000000000001,0.002742,-25.5,10.06,-30.18,2b
2019-07-15_162949:720,-0.171326,-0.031494,-0.469757,-0.003389,-0.000683,0.003474,-25.5,10.06,-30.18,2b
2019-07-15_162949:740,-0.166229,-0.032532,-0.46875,-0.003389,-0.000164,0.0036880000000000003,-26.559998999999998,10.37,-30.18,2b
2019-07-15_162949:760,-0.166748,-0.032532,-0.46875,-0.0036030000000000003,-0.0007440000000000001,0.00323,-26.559998999999998,10.37,-30.18,2b
2019-07-15_162949:780,-0.1698,-0.03302,-0.46875,-0.0038469999999999997,-0.000439,0.0028940000000000003,-26.559998999999998,10.37,-30.18,2b
2019-07-15_162949:800,-0.169281,-0.032532,-0.46823100000000006,-0.003664,-0.0006219999999999999,0.002742,-25.75,9.75,-29.0,2b
2019-07-15_162949:820,-0.167267,-0.032532,-0.467743,-0.0034799999999999996,-0.0007440000000000001,0.002711,-25.75,9.75,-29.0,2b
2019-07-15_162949:840,-0.165741,-0.03302,-0.46823100000000006,-0.003389,-0.0006219999999999999,0.00265,-27.0,9.37,-29.75,2b
2019-07-15_162949:860,-0.165741,-0.03302,-0.46823100000000006,-0.0036030000000000003,-0.001263,0.0024059999999999997,-27.0,9.37,-29.75,2b
2019-07-15_162949:880,-0.166748,-0.032013,-0.46823100000000006,-0.0032670000000000004,-0.001202,0.002254,-27.0,9.37,-29.75,2b
2019-07-15_162949:900,-0.167755,-0.032013,-0.46926899999999994,-0.00345,-0.001385,0.002254,-25.75,9.37,-29.370001000000002,2b
2019-07-15_162949:920,-0.167267,-0.032013,-0.46926899999999994,-0.0033280000000000002,-0.001324,0.002315,-25.75,9.37,-29.370001000000002,2b
2019-07-15_162949:940,-0.166748,-0.029968,-0.47079499999999996,-0.0033280000000000002,-0.001446,0.002254,-27.0,10.06,-30.559998999999998,2b
2019-07-15_162949:960,-0.166229,-0.029968,-0.47180200000000005,-0.0032670000000000004,-0.001141,0.002315,-27.0,10.06,-30.559998999999998,2b
2019-07-15_162949:980,-0.166229,-0.029968,-0.469757,-0.003389,-0.0014759999999999999,0.002589,-27.0,10.06,-30.559998999999998,2b
2019-07-15_162950:000,-0.168274,-0.029968,-0.47079499999999996,-0.003114,-0.001446,0.002833,-24.370001000000002,9.37,-29.0,2b
2019-07-15_162950:020,-0.164703,-0.029480000000000003,-0.469757,-0.003389,-0.0014759999999999999,0.002955,-24.370001000000002,9.37,-29.0,2b
2019-07-15_162950:040,-0.164703,-0.031006,-0.471283,-0.003664,-0.001324,0.0031079999999999997,-24.370001000000002,9.37,-29.0,2b
2019-07-15_162950:060,-0.165222,-0.031006,-0.47079499999999996,-0.0034799999999999996,-0.001202,0.0031079999999999997,-25.75,9.37,-29.75,2b
2019-07-15_162950:080,-0.166229,-0.031006,-0.471283,-0.003542,-0.001324,0.0031079999999999997,-25.75,9.37,-29.75,2b
2019-07-15_162950:100,-0.166748,-0.032013,-0.47079499999999996,-0.0036030000000000003,-0.0014759999999999999,0.003078,-25.5,9.37,-29.370001000000002,2b
2019-07-15_162950:120,-0.166229,-0.03302,-0.47079499999999996,-0.0034799999999999996,-0.0011099999999999999,0.003078,-25.5,9.37,-29.370001000000002,2b
2019-07-15_162950:140,-0.166229,-0.032532,-0.47180200000000005,-0.003389,-0.001324,0.002955,-25.75,10.37,-30.18,2b
2019-07-15_162950:160,-0.167267,-0.03302,-0.471283,-0.003023,-0.0011099999999999999,0.002955,-25.75,10.37,-30.18,2b
2019-07-15_162950:180,-0.164703,-0.032532,-0.471283,-0.003084,-0.000958,0.0028940000000000003,-25.75,10.37,-30.18,2b
2019-07-15_162950:200,-0.163696,-0.032532,-0.47180200000000005,-0.003023,-0.0007740000000000001,0.002833,-25.5,9.37,-30.18,2b
2019-07-15_162950:220,-0.165741,-0.032013,-0.470276,-0.003206,-0.0008349999999999999,0.002589,-25.5,9.37,-30.18,2b
2019-07-15_162950:240,-0.166229,-0.032532,-0.470276,-0.003145,-0.001324,0.002315,-25.5,9.37,-30.18,2b
2019-07-15_162950:260,-0.166748,-0.032013,-0.47079499999999996,-0.003114,-0.000958,0.002376,-26.559998999999998,10.37,-29.0,2b
2019-07-15_162950:280,-0.165222,-0.03302,-0.470276,-0.0029010000000000004,-0.000897,0.0025280000000000003,-26.559998999999998,10.37,-29.0,2b
2019-07-15_162950:300,-0.168793,-0.031494,-0.47079499999999996,-0.0028399999999999996,-0.0011099999999999999,0.002376,-25.5,9.37,-28.559998999999998,2b
2019-07-15_162950:320,-0.166748,-0.029968,-0.46875,-0.003114,-0.001263,0.002742,-25.5,9.37,-28.559998999999998,2b
2019-07-15_162950:340,-0.164215,-0.032013,-0.46823100000000006,-0.003114,-0.001263,0.0028940000000000003,-25.5,9.37,-28.559998999999998,2b
2019-07-15_162950:360,-0.160645,-0.031006,-0.470276,-0.0034799999999999996,-0.001446,0.002009,-25.5,9.0,-29.75,2b
2019-07-15_162950:380,-0.164215,-0.031006,-0.471283,-0.004121,-0.001537,0.00207,-25.5,9.0,-29.75,2b
2019-07-15_162950:400,-0.161652,-0.031494,-0.472321,-0.004121,-0.00172,0.0025280000000000003,-26.18,9.75,-31.0,2b
2019-07-15_162950:420,-0.166229,-0.034546,-0.472321,-0.00406,-0.001873,0.002009,-26.18,9.75,-31.0,2b
2019-07-15_162950:440,-0.168274,-0.033539,-0.473846,-0.003542,-0.0014759999999999999,0.001674,-26.18,9.75,-31.0,2b
2019-07-15_162950:460,-0.166229,-0.035065,-0.47280900000000003,-0.0028399999999999996,-0.0008349999999999999,0.002131,-25.75,9.75,-30.18,2b
2019-07-15_162950:480,-0.165741,-0.031006,-0.47332799999999997,-0.002229,-0.000683,0.002376,-25.75,9.75,-30.18,2b
2019-07-15_162950:500,-0.163177,-0.028442000000000002,-0.472321,-0.002565,-0.0007440000000000001,0.002315,-26.559998999999998,9.37,-29.370001000000002,2b
2019-07-15_162950:520,-0.163696,-0.027435,-0.469757,-0.002565,-0.0005,0.002589,-26.559998999999998,9.37,-29.370001000000002,2b
2019-07-15_162950:540,-0.165222,-0.026427999999999997,-0.47180200000000005,-0.003114,-0.000683,0.002467,-26.559998999999998,9.37,-29.370001000000002,2b
2019-07-15_162950:560,-0.167755,-0.026917,-0.472321,-0.003664,-0.0005610000000000001,0.00265,-25.5,9.37,-29.370001000000002,2b
2019-07-15_162950:580,-0.164215,-0.028961,-0.47079499999999996,-0.0039380000000000005,-0.000439,0.0034130000000000002,-25.5,9.37,-29.370001000000002,2b
2019-07-15_162950:600,-0.164703,-0.030487,-0.471283,-0.004121,-0.0005610000000000001,0.003505,-25.5,9.75,-28.559998999999998,2b
2019-07-15_162950:620,-0.165222,-0.031006,-0.46875,-0.004182,-0.000958,0.0034130000000000002,-25.5,9.75,-28.559998999999998,2b
2019-07-15_162950:640,-0.165741,-0.031006,-0.47079499999999996,-0.003999,-0.001141,0.003901,-25.5,9.75,-28.559998999999998,2b
2019-07-15_162950:660,-0.164215,-0.032532,-0.47079499999999996,-0.003725,-0.001019,0.003749,-25.5,10.06,-29.0,2b
2019-07-15_162950:680,-0.164215,-0.032013,-0.469757,-0.003725,-0.000958,0.0035659999999999997,-25.5,10.06,-29.0,2b
2019-07-15_162950:700,-0.166229,-0.032532,-0.472321,-0.0038770000000000002,-0.001202,0.003474,-25.059998999999998,9.75,-30.559998999999998,2b
2019-07-15_162950:720,-0.166748,-0.03302,-0.470276,-0.0034799999999999996,-0.00108,0.0031079999999999997,-25.059998999999998,9.75,-30.559998999999998,2b
2019-07-15_162950:740,-0.166229,-0.03302,-0.471283,-0.003542,-0.0008349999999999999,0.0025280000000000003,-25.059998999999998,9.75,-30.559998999999998,2b
2019-07-15_162950:760,-0.163696,-0.03302,-0.47180200000000005,-0.003114,-0.0007740000000000001,0.002254,-25.75,9.37,-30.559998999999998,2b
2019-07-15_162950:780,-0.163177,-0.032532,-0.47079499999999996,-0.003206,-0.001202,0.002009,-25.75,9.37,-30.559998999999998,2b
2019-07-15_162950:800,-0.163696,-0.030487,-0.47079499999999996,-0.003023,-0.001141,0.001857,-26.559998999999998,9.75,-29.75,2b
2019-07-15_162950:820,-0.165741,-0.029968,-0.47180200000000005,-0.0029010000000000004,-0.001263,0.002009,-26.559998999999998,9.75,-29.75,2b
2019-07-15_162950:840,-0.166229,-0.028961,-0.471283,-0.0028399999999999996,-0.001202,0.002009,-26.559998999999998,9.75,-29.75,2b
2019-07-15_162950:860,-0.165741,-0.028961,-0.472321,-0.002779,-0.001019,0.002376,-25.75,9.75,-30.18,2b
2019-07-15_162950:880,-0.164703,-0.029480000000000003,-0.47180200000000005,-0.0026260000000000003,-0.000958,0.0025280000000000003,-25.75,9.75,-30.18,2b
2019-07-15_162950:900,-0.165741,-0.029968,-0.471283,-0.003023,-0.001019,0.0027719999999999997,-25.75,9.75,-29.0,2b
2019-07-15_162950:920,-0.164703,-0.028442000000000002,-0.47180200000000005,-0.003145,-0.000958,0.0031079999999999997,-25.75,9.75,-29.0,2b
2019-07-15_162950:940,-0.163696,-0.028442000000000002,-0.471283,-0.0032670000000000004,-0.0008349999999999999,0.0034130000000000002,-25.75,9.75,-29.0,2b
2019-07-15_162950:960,-0.165222,-0.032013,-0.47079499999999996,-0.003664,-0.000683,0.0034130000000000002,-25.75,10.06,-29.0,2b
2019-07-15_162950:980,-0.164215,-0.031006,-0.46875,-0.003542,-0.000897,0.00323,-25.75,10.06,-29.0,2b
2019-07-15_162951:000,-0.165741,-0.032532,-0.47079499999999996,-0.003999,-0.000897,0.003078,-25.75,9.37,-30.559998999999998,2b
2019-07-15_162951:020,-0.165222,-0.033539,-0.469757,-0.0039380000000000005,-0.00108,0.00265,-25.75,9.37,-30.559998999999998,2b
2019-07-15_162951:040,-0.164703,-0.03302,-0.47079499999999996,-0.003542,-0.000897,0.0021920000000000004,-25.75,9.37,-30.559998999999998,2b
2019-07-15_162951:060,-0.163696,-0.03302,-0.469757,-0.0032670000000000004,-0.001324,0.001979,-25.75,9.0,-30.18,2b
2019-07-15_162951:080,-0.162689,-0.032532,-0.471283,-0.003084,-0.001537,0.0017350000000000002,-25.75,9.0,-30.18,2b
2019-07-15_162951:100,-0.164215,-0.031494,-0.47180200000000005,-0.002779,-0.0016589999999999999,0.001521,-25.5,9.75,-29.75,2b
2019-07-15_162951:120,-0.165222,-0.030487,-0.47079499999999996,-0.002748,-0.001782,0.00146,-25.5,9.75,-29.75,2b
2019-07-15_162951:140,-0.163696,-0.027435,-0.472321,-0.0023510000000000002,-0.0016589999999999999,0.001796,-25.5,9.75,-29.75,2b
2019-07-15_162951:160,-0.163177,-0.027435,-0.47180200000000005,-0.002382,-0.0014759999999999999,0.002131,-25.75,9.0,-29.370001000000002,2b
2019-07-15_162951:180,-0.166229,-0.026427999999999997,-0.471283,-0.002687,-0.001202,0.002467,-25.75,9.0,-29.370001000000002,2b
2019-07-15_162951:200,-0.163696,-0.026917,-0.47180200000000005,-0.003023,-0.001324,0.0032909999999999997,-25.75,9.75,-30.559998999999998,2b
2019-07-15_162951:220,-0.161163,-0.028442000000000002,-0.47180200000000005,-0.0033280000000000002,-0.0011099999999999999,0.003078,-25.75,9.75,-30.559998999999998,2b
2019-07-15_162951:240,-0.160645,-0.026917,-0.47332799999999997,-0.003786,-0.0014759999999999999,0.002955,-25.75,9.75,-30.559998999999998,2b
2019-07-15_162951:260,-0.163696,-0.029968,-0.47433500000000006,-0.0039380000000000005,-0.001385,0.0035659999999999997,-25.059998999999998,9.37,-29.75,2b
2019-07-15_162951:280,-0.161163,-0.032532,-0.47433500000000006,-0.004182,-0.001446,0.0033520000000000004,-25.059998999999998,9.37,-29.75,2b
2019-07-15_162951:300,-0.163696,-0.035065,-0.47433500000000006,-0.0038469999999999997,-0.001263,0.002742,-25.75,9.75,-30.18,2b
2019-07-15_162951:320,-0.164215,-0.035065,-0.472321,-0.0032670000000000004,-0.000958,0.002711,-25.75,9.75,-30.18,2b
2019-07-15_162951:340,-0.162689,-0.034546,-0.47332799999999997,-0.002748,-0.0007440000000000001,0.002711,-25.75,9.75,-30.18,2b
2019-07-15_162951:360,-0.163177,-0.03302,-0.47180200000000005,-0.002107,-0.000225,0.002711,-25.5,10.06,-29.0,2b
2019-07-15_162951:380,-0.161163,-0.029968,-0.47079499999999996,-0.001955,-4.2e-05,0.0025280000000000003,-25.5,10.06,-29.0,2b
2019-07-15_162951:400,-0.161652,-0.028442000000000002,-0.47079499999999996,-0.002443,-0.00037799999999999997,0.002131,-25.75,10.06,-30.18,2b
2019-07-15_162951:420,-0.162689,-0.028961,-0.46926899999999994,-0.0029010000000000004,-0.000683,0.001857,-25.75,10.06,-30.18,2b
2019-07-15_162951:440,-0.166229,-0.028961,-0.470276,-0.003084,-0.0007740000000000001,0.0021920000000000004,-25.75,10.06,-30.18,2b
2019-07-15_162951:460,-0.162689,-0.031006,-0.469757,-0.0032670000000000004,-0.0008349999999999999,0.002467,-25.75,10.06,-30.559998999999998,2b
2019-07-15_162951:480,-0.164215,-0.030487,-0.46823100000000006,-0.003389,-0.000958,0.002376,-25.75,10.06,-30.559998999999998,2b
2019-07-15_162951:500,-0.164215,-0.031006,-0.472321,-0.003114,-0.001141,0.002833,-25.5,9.75,-31.370001000000002,2b
2019-07-15_162951:520,-0.164215,-0.030487,-0.469757,-0.002748,-0.001263,0.0028940000000000003,-25.5,9.75,-31.370001000000002,2b
2019-07-15_162951:540,-0.164215,-0.029968,-0.471283,-0.003114,-0.001385,0.002711,-25.5,9.75,-31.370001000000002,2b
2019-07-15_162951:560,-0.163696,-0.030487,-0.470276,-0.00345,-0.001385,0.0027719999999999997,-26.559998999999998,9.37,-29.0,2b
2019-07-15_162951:580,-0.164215,-0.030487,-0.470276,-0.0033280000000000002,-0.001446,0.002833,-26.559998999999998,9.37,-29.0,2b
2019-07-15_162951:600,-0.16217,-0.032013,-0.472321,-0.003114,-0.001019,0.002589,-25.75,9.37,-31.0,2b
2019-07-15_162951:620,-0.161163,-0.032013,-0.471283,-0.0029620000000000002,-0.001324,0.002467,-25.75,9.37,-31.0,2b
2019-07-15_162951:640,-0.161163,-0.031006,-0.47180200000000005,-0.0028399999999999996,-0.001598,0.0025280000000000003,-25.75,9.37,-31.0,2b
2019-07-15_162951:660,-0.161163,-0.031006,-0.47280900000000003,-0.0026260000000000003,-0.001598,0.002711,-25.059998999999998,9.75,-30.18,2b
2019-07-15_162951:680,-0.16217,-0.029968,-0.472321,-0.002565,-0.001995,0.0027719999999999997,-25.059998999999998,9.75,-30.18,2b
2019-07-15_162951:700,-0.162689,-0.028961,-0.47332799999999997,-0.003023,-0.001598,0.003169,-25.75,10.37,-29.0,2b
2019-07-15_162951:720,-0.16217,-0.028961,-0.47332799999999997,-0.003145,-0.0016589999999999999,0.00323,-25.75,10.37,-29.0,2b
2019-07-15_162951:740,-0.16217,-0.030487,-0.475861,-0.003542,-0.001446,0.0031079999999999997,-25.75,10.37,-29.0,2b
2019-07-15_162951:760,-0.161652,-0.031494,-0.474854,-0.003664,-0.001385,0.003078,-25.059998999999998,9.37,-29.75,2b
2019-07-15_162951:780,-0.161652,-0.032013,-0.473846,-0.003542,-0.00108,0.0031079999999999997,-25.059998999999998,9.37,-29.75,2b
